// Start Time: Unknown
// Update Rate: 60.0Hz
// Filter Profile: human (46.1)
// Firmware Version: 4.4.0
PacketCounter;Acc_X;Acc_Y;Acc_Z;Gyr_X;Gyr_Y;Gyr_Z;Mag_X;Mag_Y;Mag_Z;Quat_q0;Quat_q1;Quat_q2;Quat_q3
28597;9.511495;-0.475420;-2.039328;0.004683;0.015040;-0.005135;-0.532227;-0.217285;0.613281;-0.134321;-0.750456;0.203896;-0.614166
28598;9.492396;-0.445075;-2.041308;0.003627;0.010253;-0.003390;-0.531494;-0.217529;0.612549;-0.134333;-0.750414;0.203845;-0.614232
28599;9.514342;-0.416058;-2.090569;-0.000052;0.005354;0.002474;-0.535889;-0.216553;0.618652;-0.134331;-0.750382;0.203855;-0.614268
28600;9.540366;-0.434019;-2.080426;-0.006462;0.004118;0.001716;-0.533447;-0.217529;0.623047;-0.134370;-0.750351;0.203894;-0.614284
28601;9.525762;-0.445605;-2.036867;-0.006190;0.010688;0.005792;-0.530029;-0.206055;0.610107;-0.134398;-0.750281;0.203949;-0.614345
28602;9.520316;-0.488348;-2.053619;-0.000119;0.008021;0.002354;-0.533936;-0.218750;0.617188;-0.134403;-0.750237;0.203953;-0.614396
28603;9.520014;-0.458245;-2.039497;-0.001470;0.008514;-0.001575;-0.535889;-0.218262;0.617920;-0.134436;-0.750197;0.203940;-0.614443
28604;9.520891;-0.452423;-2.051447;-0.000226;0.010676;0.000877;-0.535156;-0.209229;0.617432;-0.134453;-0.750142;0.203933;-0.614508
28605;9.547611;-0.428658;-2.054534;0.002830;0.009348;-0.000162;-0.535889;-0.221680;0.623047;-0.134455;-0.750101;0.203905;-0.614568
28606;9.572755;-0.422031;-2.016842;0.008147;0.014960;-0.001850;-0.541748;-0.223877;0.613281;-0.134445;-0.750041;0.203831;-0.614668
28607;9.528631;-0.440433;-2.039373;0.003377;0.023617;-0.001270;-0.531738;-0.225342;0.607910;-0.134479;-0.749929;0.203772;-0.614816
28608;9.504237;-0.488159;-2.057245;-0.009548;0.023802;-0.004270;-0.528564;-0.220459;0.615234;-0.134613;-0.749808;0.203758;-0.614939
28609;9.472261;-0.487557;-2.055343;-0.013868;0.019162;0.000982;-0.534180;-0.221680;0.614502;-0.134736;-0.749699;0.203807;-0.615029
28610;9.525105;-0.517201;-2.047271;-0.017348;0.015443;0.004369;-0.531006;-0.217529;0.613525;-0.134855;-0.749601;0.203900;-0.615090
28611;9.551983;-0.457661;-2.050041;-0.012804;0.017471;0.004673;-0.543701;-0.213623;0.614258;-0.134944;-0.749499;0.203974;-0.615172
28612;9.568551;-0.414831;-1.964187;-0.002770;0.019789;0.004892;-0.534424;-0.223145;0.610352;-0.134973;-0.749396;0.203994;-0.615284
28613;9.542172;-0.445360;-1.942987;-0.006034;0.019942;0.008402;-0.538330;-0.219238;0.613281;-0.135013;-0.749280;0.204046;-0.615399
28614;9.499243;-0.452950;-1.992478;-0.029330;0.021984;0.007407;-0.539062;-0.218018;0.608643;-0.135209;-0.749125;0.204208;-0.615491
28615;9.526438;-0.464814;-1.992804;-0.049027;0.027802;0.007111;-0.529785;-0.222168;0.614502;-0.135541;-0.748916;0.204460;-0.615589
28616;9.520445;-0.517715;-1.980151;-0.044283;0.028338;0.002358;-0.538574;-0.223877;0.613037;-0.135868;-0.748723;0.204658;-0.615685
28617;9.566079;-0.569974;-1.949130;-0.032431;0.027164;-0.000905;-0.536377;-0.226074;0.614990;-0.136136;-0.748549;0.204779;-0.615797
28618;9.522799;-0.617582;-1.984353;-0.021529;0.021208;0.001633;-0.529297;-0.226562;0.610352;-0.136306;-0.748411;0.204873;-0.615897
28619;9.503186;-0.557725;-1.972851;-0.005669;0.013122;0.004951;-0.536377;-0.212891;0.616455;-0.136332;-0.748326;0.204926;-0.615977
28620;9.517302;-0.558849;-1.986667;0.015854;0.006487;0.004361;-0.546143;-0.218994;0.616211;-0.136187;-0.748295;0.204879;-0.616062
28621;9.531286;-0.488196;-2.002126;0.021263;0.004058;-0.001038;-0.540527;-0.221680;0.611816;-0.136035;-0.748283;0.204778;-0.616143
28622;9.532100;-0.410934;-2.015607;0.013807;0.007236;-0.002892;-0.534180;-0.218018;0.616943;-0.135953;-0.748253;0.204701;-0.616223
28623;9.526812;-0.380827;-2.033346;0.001640;0.013727;-0.006645;-0.534424;-0.218018;0.616455;-0.135973;-0.748200;0.204644;-0.616303
28624;9.517898;-0.384725;-1.969846;-0.011518;0.015435;-0.005955;-0.542236;-0.213379;0.609619;-0.136082;-0.748128;0.204651;-0.616364
28625;9.537951;-0.412869;-1.963546;-0.024683;0.014453;-0.007868;-0.538818;-0.213135;0.611816;-0.136282;-0.748031;0.204715;-0.616416
28626;9.534216;-0.476962;-2.005938;-0.033369;0.018172;-0.009578;-0.549072;-0.222412;0.608643;-0.136551;-0.747916;0.204801;-0.616467
28627;9.527180;-0.498271;-1.982653;-0.023320;0.008586;-0.007782;-0.544434;-0.218750;0.616943;-0.136759;-0.747837;0.204870;-0.616493
28628;9.535688;-0.467282;-2.016328;-0.001257;0.007045;-0.006619;-0.530518;-0.212158;0.613037;-0.136792;-0.747812;0.204824;-0.616533
28629;9.528928;-0.448513;-2.008156;0.015098;0.001340;-0.005517;-0.533691;-0.222168;0.612061;-0.136694;-0.747859;0.204698;-0.616539
28630;9.534574;-0.405979;-1.989569;0.030647;-0.001448;-0.009204;-0.543945;-0.221680;0.609375;-0.136556;-0.747937;0.204479;-0.616548
28631;9.526349;-0.363142;-1.955638;0.029066;0.000561;-0.009417;-0.544678;-0.219727;0.611572;-0.136437;-0.747974;0.204274;-0.616597
28632;9.545961;-0.356213;-1.951692;0.007322;0.003307;-0.008979;-0.531006;-0.217773;0.618652;-0.136451;-0.747974;0.204172;-0.616627
28633;9.535600;-0.397532;-2.001689;-0.008897;0.006343;-0.007261;-0.547363;-0.224121;0.613037;-0.136545;-0.747990;0.204133;-0.616600
28634;9.555522;-0.461645;-1.995936;-0.005656;0.008882;-0.009517;-0.533691;-0.222168;0.611572;-0.136683;-0.747945;0.204082;-0.616641
28635;9.528097;-0.459447;-1.964104;0.008097;0.004221;-0.013552;-0.539551;-0.217041;0.610596;-0.136738;-0.747982;0.203931;-0.616635
28636;9.516992;-0.470729;-2.001587;0.027271;-0.001302;-0.009760;-0.547119;-0.224365;0.612061;-0.136614;-0.748039;0.203718;-0.616663
28637;9.505070;-0.488676;-2.026285;0.041132;-0.005921;-0.009714;-0.534912;-0.221924;0.609863;-0.136441;-0.748119;0.203449;-0.616693
28638;9.504796;-0.452782;-2.027754;0.047041;-0.009756;-0.009305;-0.536865;-0.223877;0.615479;-0.136205;-0.748257;0.203151;-0.616676
28639;9.556645;-0.374583;-2.024716;0.035256;-0.004728;-0.011348;-0.538818;-0.217773;0.608154;-0.136067;-0.748372;0.202895;-0.616651
28640;9.569719;-0.307897;-2.027880;0.014006;0.003071;-0.010547;-0.536621;-0.221680;0.610596;-0.136048;-0.748389;0.202746;-0.616683
28641;9.580540;-0.299739;-1.975805;-0.003411;0.006617;-0.007344;-0.539795;-0.220703;0.607666;-0.136159;-0.748384;0.202696;-0.616682
28642;9.572810;-0.363724;-1.938981;-0.017450;0.010051;-0.003569;-0.538574;-0.216064;0.611572;-0.136351;-0.748314;0.202737;-0.616710
28643;9.580292;-0.416831;-1.944006;-0.021987;0.013412;0.001315;-0.545410;-0.219482;0.612061;-0.136499;-0.748233;0.202818;-0.616750
28644;9.548803;-0.482766;-1.956045;-0.019701;0.011179;0.004860;-0.550293;-0.207031;0.611816;-0.136646;-0.748132;0.202921;-0.616806
28645;9.531584;-0.471923;-1.998174;-0.013893;0.012693;0.006395;-0.537354;-0.219727;0.615967;-0.136629;-0.748001;0.202999;-0.616942
28646;9.525698;-0.484204;-2.001875;-0.013049;0.010929;0.001936;-0.537354;-0.221191;0.610352;-0.136721;-0.747969;0.203040;-0.616948
28647;9.526723;-0.478110;-2.013595;-0.009493;0.011996;-0.001315;-0.541016;-0.235107;0.608887;-0.136838;-0.747917;0.203051;-0.616981
28648;9.565510;-0.470868;-1.990978;-0.003577;0.014668;-0.006319;-0.535156;-0.216553;0.615234;-0.137102;-0.747847;0.203022;-0.617017
28649;9.559222;-0.488194;-1.980226;-0.001395;0.020487;0.000958;-0.543701;-0.220459;0.618652;-0.137089;-0.747793;0.202990;-0.617096
28650;9.507465;-0.458717;-1.983369;-0.001788;0.012728;0.002046;-0.538086;-0.218994;0.610107;-0.137102;-0.747752;0.202992;-0.617142
28651;9.527928;-0.447410;-1.991545;0.008132;0.008498;0.003633;-0.540527;-0.217529;0.610352;-0.137037;-0.747729;0.202953;-0.617197
28652;9.514264;-0.448240;-1.974833;0.003343;0.007965;0.007025;-0.532715;-0.221436;0.608398;-0.136969;-0.747686;0.202964;-0.617261
28653;9.540871;-0.425443;-1.977874;-0.012529;0.009517;0.009080;-0.547607;-0.219727;0.603760;-0.137037;-0.747649;0.203060;-0.617259
28654;9.513950;-0.384122;-1.959539;-0.032762;0.012923;0.009594;-0.535400;-0.221191;0.608154;-0.137248;-0.747459;0.203290;-0.617366
28655;9.566642;-0.413911;-1.951679;-0.046939;0.016355;0.007939;-0.538574;-0.227051;0.612793;-0.137547;-0.747339;0.203551;-0.617360
28656;9.553357;-0.449090;-1.933249;-0.046192;0.019974;0.004623;-0.540527;-0.223633;0.612549;-0.137924;-0.747216;0.203791;-0.617344
28657;9.541434;-0.472388;-1.941718;-0.037605;0.016252;0.002282;-0.545166;-0.227295;0.614990;-0.138202;-0.747115;0.203975;-0.617344
28658;9.555832;-0.507678;-1.954791;-0.014910;0.009067;-0.001122;-0.549805;-0.225586;0.609131;-0.138382;-0.747069;0.204041;-0.617337
28659;9.549782;-0.519448;-1.959470;-0.002779;0.002546;0.001283;-0.534424;-0.221436;0.610352;-0.138459;-0.747003;0.204076;-0.617388
28660;9.543594;-0.496146;-1.964715;0.006369;0.006610;0.004650;-0.538574;-0.216797;0.607178;-0.138386;-0.747027;0.204053;-0.617384
28661;9.597325;-0.443447;-1.985288;0.013273;0.010241;0.003229;-0.535889;-0.223877;0.609863;-0.138228;-0.746996;0.203982;-0.617480
28662;9.582952;-0.378132;-1.955441;0.014055;0.013854;0.001265;-0.532715;-0.217773;0.607422;-0.138180;-0.746987;0.203896;-0.617530
28663;9.550077;-0.384642;-1.941027;0.001142;0.019464;0.003428;-0.540771;-0.222900;0.609619;-0.138126;-0.746940;0.203866;-0.617609
28664;9.513209;-0.421438;-1.971580;-0.012301;0.019969;0.003839;-0.537842;-0.219727;0.607910;-0.138237;-0.746832;0.203929;-0.617693
28665;9.504061;-0.462557;-1.907042;-0.014129;0.018081;0.002123;-0.535889;-0.227783;0.608643;-0.138316;-0.746749;0.203981;-0.617759
28666;9.514428;-0.456756;-1.965664;-0.013591;0.015101;-0.003949;-0.545410;-0.216797;0.608643;-0.138543;-0.746713;0.204006;-0.617743
28667;9.500269;-0.461051;-1.934820;-0.007529;0.012409;-0.008726;-0.544922;-0.221191;0.607422;-0.138570;-0.746638;0.203973;-0.617839
28668;9.522231;-0.435705;-1.970094;-0.006509;0.005287;-0.011620;-0.539062;-0.220703;0.618896;-0.138671;-0.746601;0.203935;-0.617874
28669;9.521132;-0.481424;-1.942020;-0.002469;0.004910;-0.009076;-0.541992;-0.226318;0.610596;-0.138653;-0.746697;0.203856;-0.617787
28670;9.547096;-0.497708;-1.931794;0.003688;0.002240;-0.009780;-0.537354;-0.230225;0.606201;-0.138737;-0.746731;0.203774;-0.617755
28671;9.592440;-0.472063;-1.918325;0.003621;0.004923;-0.009885;-0.542480;-0.225342;0.607910;-0.138912;-0.746752;0.203694;-0.617716
28672;9.574742;-0.500962;-1.947514;0.005134;0.005600;-0.009774;-0.544922;-0.227539;0.604248;-0.138985;-0.746743;0.203608;-0.617739
28673;9.528263;-0.463827;-1.933351;0.003615;0.007622;-0.007275;-0.539795;-0.223633;0.599121;-0.139115;-0.746671;0.203558;-0.617813
28674;9.556417;-0.463086;-1.963039;0.000057;0.003858;-0.006642;-0.541748;-0.216797;0.604980;-0.139210;-0.746617;0.203525;-0.617869
28675;9.557387;-0.456667;-1.975362;0.001558;0.009929;-0.001312;-0.543701;-0.223389;0.601074;-0.139115;-0.746557;0.203486;-0.617975
28676;9.550021;-0.480154;-1.952766;0.008036;0.005781;-0.003014;-0.548584;-0.228027;0.604248;-0.139137;-0.746480;0.203444;-0.618077
28677;9.529906;-0.455758;-1.942739;0.009274;0.002551;-0.005763;-0.536377;-0.229004;0.612793;-0.139231;-0.746410;0.203402;-0.618155
28678;9.544887;-0.485097;-1.970302;0.001821;0.005739;-0.007636;-0.535156;-0.220459;0.611328;-0.139353;-0.746486;0.203351;-0.618051
28679;9.530497;-0.488996;-1.940597;-0.003543;0.006629;-0.014113;-0.544189;-0.223633;0.613770;-0.139375;-0.746567;0.203254;-0.617980
28680;9.492873;-0.528153;-1.959575;0.003144;0.010227;-0.025022;-0.547363;-0.224121;0.594238;-0.139467;-0.746596;0.203074;-0.617984
28681;9.503277;-0.482483;-2.019331;0.006836;0.012485;-0.034792;-0.541748;-0.225830;0.606445;-0.139708;-0.746451;0.202852;-0.618177
28682;9.561424;-0.428806;-1.993272;0.009581;0.012642;-0.034815;-0.541016;-0.222900;0.605469;-0.139887;-0.746458;0.202591;-0.618214
28683;9.564550;-0.328174;-1.934565;0.027924;-0.003066;-0.024983;-0.540039;-0.219482;0.603271;-0.139812;-0.746553;0.202301;-0.618211
28684;9.542378;-0.391213;-1.884842;0.027431;-0.009319;-0.013415;-0.536865;-0.228516;0.614746;-0.139616;-0.746652;0.202078;-0.618209
28685;9.567267;-0.449963;-1.863500;0.023397;-0.022043;-0.003821;-0.541504;-0.230225;0.612305;-0.139498;-0.746905;0.201962;-0.617968
28686;9.553232;-0.444890;-1.865386;0.016434;-0.026855;0.006838;-0.545654;-0.224854;0.602051;-0.139415;-0.747088;0.201976;-0.617761
28687;9.553507;-0.399427;-1.897003;0.001032;-0.026760;0.014654;-0.532959;-0.231445;0.605957;-0.139342;-0.747118;0.202121;-0.617694
28688;9.563367;-0.426619;-1.974917;-0.015269;-0.021063;0.016221;-0.529053;-0.220459;0.600830;-0.139500;-0.747228;0.202365;-0.617445
28689;9.544986;-0.494159;-2.007408;-0.009575;-0.015721;0.004344;-0.539795;-0.216797;0.613525;-0.139481;-0.747338;0.202445;-0.617289
28690;9.584293;-0.512128;-2.015227;0.022189;-0.012251;-0.005124;-0.539551;-0.218262;0.606201;-0.139157;-0.747495;0.202274;-0.617229
28691;9.523436;-0.512160;-1.987569;0.061051;-0.007766;-0.010467;-0.533936;-0.225830;0.607666;-0.138715;-0.747618;0.201892;-0.617305
28692;9.558926;-0.451759;-1.929011;0.090836;-0.016546;-0.013652;-0.540283;-0.226318;0.611084;-0.138261;-0.747876;0.201378;-0.617262
28693;9.540832;-0.405310;-1.975784;0.086868;-0.018800;-0.016054;-0.546875;-0.224609;0.608154;-0.137842;-0.748108;0.200879;-0.617236
28694;9.562416;-0.340260;-2.028325;0.056344;-0.007041;-0.014931;-0.537109;-0.220947;0.606689;-0.137624;-0.748156;0.200543;-0.617337
28695;9.535768;-0.291691;-2.024981;0.023313;0.008415;-0.012316;-0.537842;-0.220215;0.607422;-0.137571;-0.748158;0.200349;-0.617409
28696;9.550095;-0.290712;-2.038622;-0.004152;0.012252;-0.006837;-0.541016;-0.226562;0.604248;-0.137649;-0.748101;0.200320;-0.617470
28697;9.536833;-0.325186;-2.020685;-0.026335;0.012511;-0.001546;-0.537842;-0.217529;0.600830;-0.138002;-0.747948;0.200489;-0.617522
28698;9.521360;-0.377142;-1.963227;-0.027211;0.002342;0.001770;-0.541504;-0.226074;0.603516;-0.138130;-0.747860;0.200632;-0.617554
28699;9.540557;-0.448132;-1.945033;0.001026;-0.004419;-0.000269;-0.525635;-0.227539;0.609863;-0.138260;-0.747821;0.200686;-0.617555
28700;9.520259;-0.460348;-1.935985;0.022779;-0.007063;-0.000628;-0.546143;-0.225586;0.609619;-0.138254;-0.748010;0.200611;-0.617350
28701;9.554561;-0.407596;-1.976142;0.023906;-0.004915;-0.002235;-0.546387;-0.229492;0.611572;-0.138187;-0.748011;0.200515;-0.617395
28702;9.554307;-0.371621;-1.976968;0.020533;0.001724;-0.008227;-0.538086;-0.222900;0.616455;-0.138267;-0.747991;0.200418;-0.617433
28703;9.547642;-0.388322;-1.968274;0.008429;0.005486;-0.011915;-0.532227;-0.222168;0.610107;-0.138278;-0.748063;0.200303;-0.617381
28704;9.535782;-0.446704;-1.977606;-0.005263;0.004709;-0.010419;-0.543701;-0.212402;0.607666;-0.138387;-0.748122;0.200264;-0.617298
28705;9.523235;-0.510823;-1.973657;-0.002765;0.003666;-0.009336;-0.533691;-0.229248;0.605469;-0.138236;-0.748087;0.200149;-0.617411
28706;9.559076;-0.521845;-2.024569;0.002381;0.002753;-0.012350;-0.541992;-0.223633;0.608154;-0.138492;-0.748107;0.200122;-0.617339
28707;9.545393;-0.442840;-2.023955;0.013885;-0.000733;-0.007912;-0.530518;-0.228027;0.608398;-0.138479;-0.748112;0.200019;-0.617369
28708;9.537274;-0.394449;-2.004347;0.016940;-0.005886;-0.000923;-0.532471;-0.225098;0.607666;-0.138522;-0.748225;0.199985;-0.617233
28709;9.542614;-0.388787;-1.986053;0.003581;-0.002740;0.006124;-0.541748;-0.225342;0.603027;-0.138549;-0.748276;0.200039;-0.617149
28710;9.547384;-0.388840;-1.953836;-0.007859;0.000763;0.004397;-0.541992;-0.219482;0.609863;-0.138676;-0.748184;0.200137;-0.617199
28711;9.570425;-0.393196;-1.890442;-0.014259;0.006027;-0.001816;-0.540283;-0.222412;0.607910;-0.138704;-0.748132;0.200169;-0.617245
28712;9.545907;-0.440550;-1.911680;-0.013960;0.001840;-0.006759;-0.538574;-0.214111;0.604004;-0.138831;-0.748105;0.200200;-0.617240
28713;9.529519;-0.458441;-1.968196;-0.008438;0.002168;-0.005458;-0.539062;-0.222168;0.607422;-0.138734;-0.748082;0.200139;-0.617309
28714;9.534100;-0.494868;-2.047658;-0.017413;-0.001911;-0.002045;-0.532227;-0.227051;0.609863;-0.138846;-0.748071;0.200222;-0.617271
28715;9.511238;-0.489534;-2.110445;-0.015739;0.005357;-0.000564;-0.536865;-0.225098;0.608398;-0.139057;-0.748088;0.200331;-0.617167
28716;9.520323;-0.493592;-2.031841;-0.003345;0.000110;0.000775;-0.542236;-0.223389;0.608398;-0.139123;-0.748100;0.200376;-0.617123
28717;9.542668;-0.503497;-1.955139;0.017435;0.003050;-0.008557;-0.540039;-0.217773;0.612549;-0.139060;-0.748096;0.200237;-0.617187
28718;9.526592;-0.483694;-1.899631;0.029026;0.000722;-0.012008;-0.540771;-0.226562;0.608887;-0.138783;-0.748185;0.199963;-0.617231
28719;9.561393;-0.465428;-1.938045;0.021488;0.000010;-0.008601;-0.543213;-0.225586;0.609131;-0.138773;-0.748208;0.199837;-0.617246
28720;9.544356;-0.411957;-1.996377;-0.004695;-0.002103;-0.007108;-0.538818;-0.223877;0.609619;-0.138887;-0.748193;0.199849;-0.617235
28721;9.556045;-0.392235;-1.972069;0.002230;0.001584;-0.007170;-0.535400;-0.227295;0.610107;-0.138924;-0.748210;0.199804;-0.617220
28722;9.531629;-0.362154;-2.008331;0.009446;0.003784;-0.009580;-0.538086;-0.227051;0.608398;-0.139011;-0.748252;0.199730;-0.617174
28723;9.530469;-0.372366;-1.980794;0.018604;0.002523;-0.011399;-0.538086;-0.227295;0.614014;-0.139047;-0.748280;0.199600;-0.617174
28724;9.518873;-0.389640;-2.005188;0.016333;-0.004475;-0.012127;-0.528809;-0.216309;0.615234;-0.139061;-0.748384;0.199475;-0.617085
28725;9.531980;-0.394071;-2.008134;-0.001785;-0.010005;-0.009490;-0.539551;-0.226807;0.604736;-0.138928;-0.748588;0.199382;-0.616896
28726;9.546394;-0.387041;-2.038099;-0.009229;-0.004165;-0.007433;-0.543213;-0.214844;0.607666;-0.139120;-0.748567;0.199431;-0.616863
28727;9.537283;-0.384499;-1.990720;-0.008181;0.000663;-0.009161;-0.529541;-0.216797;0.616455;-0.139026;-0.748541;0.199358;-0.616940
28728;9.518303;-0.424843;-1.993380;-0.005191;0.002029;-0.010298;-0.544678;-0.217529;0.616211;-0.138928;-0.748684;0.199249;-0.616824
28729;9.518744;-0.459224;-1.992478;-0.007484;0.000424;-0.005840;-0.547607;-0.225830;0.610107;-0.138819;-0.748700;0.199196;-0.616845
28730;9.538458;-0.487838;-1.988641;-0.011521;-0.005768;-0.002975;-0.542480;-0.231445;0.614502;-0.138925;-0.748659;0.199267;-0.616849
28731;9.535934;-0.468448;-1.950166;-0.001343;-0.008744;-0.002468;-0.538574;-0.226562;0.607178;-0.139036;-0.748713;0.199296;-0.616749
28732;9.563266;-0.432323;-1.982623;0.011573;-0.005019;-0.007400;-0.538574;-0.235352;0.607178;-0.139061;-0.748746;0.199229;-0.616724
28733;9.538673;-0.402839;-2.019353;0.019607;0.003519;-0.006480;-0.536133;-0.223877;0.611816;-0.139217;-0.748733;0.199164;-0.616726
28734;9.520054;-0.402686;-2.035830;0.009196;0.002595;-0.008470;-0.541016;-0.223145;0.616699;-0.139190;-0.748782;0.199063;-0.616705
28735;9.506221;-0.401580;-2.020206;0.004727;0.000551;-0.006086;-0.535645;-0.225342;0.603271;-0.139122;-0.748833;0.198983;-0.616685
28736;9.524728;-0.441841;-1.988968;0.007550;-0.001965;-0.005995;-0.543457;-0.224854;0.612305;-0.139175;-0.748836;0.198947;-0.616681
28737;9.512105;-0.429503;-2.000695;0.012652;-0.000175;-0.007768;-0.532959;-0.222412;0.606934;-0.139120;-0.748850;0.198837;-0.616711
28738;9.530491;-0.392070;-1.984682;0.019712;-0.004542;-0.011541;-0.538818;-0.226074;0.607666;-0.139044;-0.748940;0.198680;-0.616670
28739;9.524885;-0.397367;-2.004393;0.016445;-0.007117;-0.010647;-0.541016;-0.219971;0.614746;-0.139036;-0.748994;0.198566;-0.616643
28740;9.540059;-0.384948;-2.047134;-0.006007;0.001094;-0.007086;-0.544434;-0.226807;0.604736;-0.138996;-0.749017;0.198522;-0.616639
28741;9.546977;-0.365859;-2.054744;-0.023137;0.005754;-0.002348;-0.539062;-0.220703;0.616455;-0.139238;-0.748883;0.198661;-0.616702
28742;9.551196;-0.410953;-1.993588;-0.017824;0.008744;-0.006586;-0.534180;-0.221191;0.610596;-0.139279;-0.748880;0.198667;-0.616694
28743;9.517104;-0.385356;-1.968001;0.003871;0.006159;-0.009641;-0.539795;-0.229980;0.613281;-0.139252;-0.748913;0.198569;-0.616692
28744;9.518912;-0.408883;-1.993808;0.010929;-0.002050;-0.005410;-0.530029;-0.231934;0.609131;-0.139274;-0.748961;0.198499;-0.616650
28745;9.513397;-0.414563;-2.013056;-0.000081;-0.002720;-0.006656;-0.541260;-0.225098;0.612061;-0.139456;-0.749036;0.198510;-0.616516
28746;9.554577;-0.419384;-2.045774;0.003088;-0.000162;-0.011612;-0.533203;-0.227539;0.609863;-0.139477;-0.749058;0.198423;-0.616511
28747;9.540146;-0.423203;-2.016625;0.016065;0.003601;-0.013830;-0.537354;-0.229004;0.604980;-0.139509;-0.749116;0.198274;-0.616481
28748;9.518525;-0.409291;-1.980190;0.019912;-0.000627;-0.011408;-0.546143;-0.220947;0.604492;-0.139546;-0.749132;0.198148;-0.616495
28749;9.521178;-0.385664;-2.033868;0.012604;0.002532;-0.006527;-0.540527;-0.227295;0.612793;-0.139448;-0.749061;0.198040;-0.616637
28750;9.540941;-0.337186;-2.044004;-0.001135;0.004390;-0.003804;-0.537109;-0.211670;0.612305;-0.139498;-0.749051;0.198026;-0.616643
28751;9.540075;-0.306155;-2.030470;-0.010083;0.006824;-0.004453;-0.536621;-0.229492;0.605469;-0.139343;-0.749054;0.197977;-0.616690
28752;9.564937;-0.333717;-1.992992;-0.009709;0.002660;-0.006678;-0.533936;-0.225342;0.607422;-0.139560;-0.749020;0.198036;-0.616663
28753;9.557403;-0.397320;-1.957179;-0.004122;-0.002380;-0.009201;-0.538574;-0.219971;0.616943;-0.139657;-0.749059;0.198026;-0.616597
28754;9.526247;-0.462730;-1.970983;0.005994;0.000049;-0.004862;-0.532715;-0.225830;0.611816;-0.139497;-0.749133;0.197915;-0.616579
28755;9.508194;-0.457048;-2.001331;0.001057;0.002136;-0.004319;-0.534668;-0.225830;0.604980;-0.139521;-0.749184;0.197884;-0.616522
28756;9.542290;-0.444450;-2.026199;0.007716;0.001937;-0.007217;-0.537598;-0.222168;0.606445;-0.139567;-0.749185;0.197837;-0.616525
28757;9.557219;-0.396430;-2.068714;-0.003036;0.005163;-0.005631;-0.545410;-0.228271;0.609863;-0.139595;-0.749150;0.197825;-0.616566
28758;9.554413;-0.382463;-2.014727;-0.008185;0.006053;-0.002624;-0.537354;-0.225830;0.607422;-0.139702;-0.749069;0.197863;-0.616627
28759;9.559390;-0.381199;-1.981663;0.006578;0.002482;-0.003016;-0.541016;-0.224854;0.611572;-0.139704;-0.749063;0.197832;-0.616644
28760;9.552304;-0.362944;-1.973873;0.006854;0.003695;-0.002771;-0.537109;-0.230469;0.604492;-0.139648;-0.749059;0.197770;-0.616682
28761;9.535501;-0.387733;-2.016197;-0.005766;0.007698;-0.001661;-0.539062;-0.225830;0.599609;-0.139832;-0.748986;0.197844;-0.616705
28762;9.527235;-0.380382;-1.981021;-0.005146;0.004738;-0.004995;-0.538330;-0.227783;0.609131;-0.139974;-0.748894;0.197895;-0.616768
28763;9.523780;-0.410380;-2.025165;-0.008574;0.007516;-0.004343;-0.529297;-0.225586;0.608887;-0.140096;-0.748855;0.197926;-0.616778
28764;9.555589;-0.378875;-2.009824;-0.003880;0.004225;-0.003776;-0.543213;-0.236816;0.608154;-0.140161;-0.748895;0.197934;-0.616712
28765;9.553156;-0.400904;-1.955309;0.011973;0.002802;-0.007128;-0.538086;-0.231445;0.605957;-0.140308;-0.748862;0.197895;-0.616730
28766;9.541847;-0.418694;-1.978732;0.009665;0.007733;-0.008085;-0.540283;-0.229248;0.614746;-0.140413;-0.748827;0.197841;-0.616767
28767;9.529462;-0.406254;-1.989255;0.004565;0.005933;-0.006315;-0.533203;-0.224609;0.608398;-0.140436;-0.748839;0.197776;-0.616767
28768;9.532692;-0.418608;-2.041822;-0.002563;0.001021;-0.003793;-0.539551;-0.228516;0.613037;-0.140459;-0.748871;0.197774;-0.616724
28769;9.544202;-0.399521;-2.017637;-0.006641;-0.002501;0.000304;-0.538818;-0.228516;0.606445;-0.140500;-0.748897;0.197819;-0.616669
28770;9.556772;-0.410756;-2.006473;0.015874;-0.004114;-0.005939;-0.547119;-0.232422;0.611328;-0.140470;-0.748930;0.197736;-0.616662
28771;9.549545;-0.391991;-1.999387;0.016849;0.000711;-0.010374;-0.532959;-0.228271;0.607910;-0.140476;-0.748926;0.197603;-0.616708
28772;9.543130;-0.367370;-2.005012;0.007309;0.006106;-0.006341;-0.537598;-0.230469;0.613281;-0.140524;-0.748939;0.197553;-0.616697
28773;9.510648;-0.367099;-2.005880;-0.003005;0.005171;-0.004278;-0.537354;-0.229492;0.606445;-0.140614;-0.748947;0.197556;-0.616667
28774;9.518651;-0.378721;-2.026149;-0.019294;0.001484;0.000053;-0.539062;-0.226318;0.596436;-0.140798;-0.748907;0.197689;-0.616630
28775;9.544660;-0.395401;-2.016286;-0.012877;0.000088;-0.001730;-0.535645;-0.227051;0.611816;-0.140942;-0.748820;0.197787;-0.616672
28776;9.573584;-0.386796;-1.948211;0.012498;-0.004022;-0.006522;-0.539551;-0.224365;0.607666;-0.140879;-0.748905;0.197694;-0.616613
28777;9.543455;-0.363974;-2.004084;0.012964;0.001086;-0.006150;-0.537109;-0.229248;0.612061;-0.140787;-0.748919;0.197583;-0.616653
28778;9.513369;-0.341182;-2.059729;-0.008897;-0.000264;-0.001890;-0.542236;-0.226807;0.610596;-0.140872;-0.748941;0.197633;-0.616591
28779;9.527288;-0.382165;-2.060446;-0.014554;0.004758;-0.002078;-0.539062;-0.229736;0.614990;-0.140952;-0.748897;0.197685;-0.616609
28780;9.544006;-0.439282;-1.988609;-0.010354;-0.003643;-0.003235;-0.536865;-0.229248;0.604248;-0.141025;-0.748945;0.197724;-0.616521
28781;9.540097;-0.431183;-1.922975;0.007483;-0.008507;-0.004635;-0.536865;-0.222656;0.612061;-0.141046;-0.748987;0.197707;-0.616471
28782;9.542322;-0.449662;-1.963789;0.013880;-0.007208;-0.003830;-0.541260;-0.221680;0.607422;-0.140874;-0.749082;0.197599;-0.616429
28783;9.557445;-0.438255;-2.006651;0.012477;-0.001322;-0.003933;-0.540771;-0.229980;0.606934;-0.140725;-0.749093;0.197497;-0.616482
28784;9.546892;-0.367963;-2.072697;-0.000801;0.005620;-0.000849;-0.537109;-0.237061;0.615479;-0.140791;-0.749039;0.197521;-0.616526
28785;9.532429;-0.372907;-2.043397;0.004699;0.000568;-0.007429;-0.534424;-0.226318;0.601318;-0.140909;-0.749094;0.197483;-0.616444
28786;9.582134;-0.346364;-1.998227;0.016911;0.000739;-0.007663;-0.536377;-0.227783;0.614014;-0.140884;-0.749100;0.197393;-0.616471
28787;9.535583;-0.346134;-1.984281;0.017460;0.003167;-0.007172;-0.535156;-0.231445;0.600098;-0.140797;-0.749158;0.197255;-0.616464
28788;9.537714;-0.328265;-2.023883;0.012099;0.006704;-0.009706;-0.530029;-0.232178;0.607910;-0.140910;-0.749114;0.197201;-0.616510
28789;9.509987;-0.368265;-1.977796;0.005375;0.006877;-0.009522;-0.537842;-0.227539;0.606445;-0.141043;-0.749133;0.197167;-0.616467
28790;9.487226;-0.404572;-2.025624;-0.011484;0.003441;-0.003097;-0.539062;-0.223389;0.611084;-0.141150;-0.749098;0.197223;-0.616468
28791;9.533963;-0.403732;-2.038882;-0.007928;0.000698;0.001671;-0.531982;-0.220459;0.610107;-0.141108;-0.749099;0.197253;-0.616466
28792;9.540027;-0.391450;-2.033481;-0.002142;-0.000437;-0.000720;-0.541260;-0.235596;0.606445;-0.141022;-0.749150;0.197240;-0.616428
28793;9.558709;-0.390568;-2.016707;0.015910;-0.004084;-0.004575;-0.539062;-0.229004;0.611084;-0.141064;-0.749162;0.197193;-0.616419
28794;9.558042;-0.395922;-2.003403;0.024871;0.000062;-0.007973;-0.536865;-0.225830;0.602051;-0.140952;-0.749214;0.197026;-0.616435
28795;9.526709;-0.384779;-2.031820;0.012034;0.002843;-0.004412;-0.529297;-0.231934;0.601562;-0.140922;-0.749191;0.196968;-0.616488
28796;9.544928;-0.389144;-2.000796;0.004372;0.002048;-0.006438;-0.541504;-0.231934;0.600586;-0.141074;-0.749193;0.196994;-0.616443
28797;9.539670;-0.394881;-2.019085;0.006428;0.005169;-0.005839;-0.533203;-0.227539;0.601562;-0.141174;-0.749117;0.196980;-0.616516
28798;9.545256;-0.387482;-1.999552;0.010432;0.002131;-0.008582;-0.535645;-0.229492;0.603027;-0.141209;-0.749119;0.196919;-0.616526
28799;9.545371;-0.386724;-1.999151;0.021166;0.001633;-0.007564;-0.542969;-0.226318;0.612793;-0.141185;-0.749128;0.196813;-0.616554
28800;9.527422;-0.381563;-2.029082;0.012612;0.005285;-0.002567;-0.532471;-0.221680;0.605957;-0.141065;-0.749125;0.196703;-0.616620
28801;9.519671;-0.369223;-2.007618;0.000187;0.003896;0.000121;-0.536865;-0.233887;0.614990;-0.141006;-0.749129;0.196692;-0.616632
28802;9.546431;-0.380993;-2.010665;0.009382;0.002697;-0.000324;-0.540283;-0.229980;0.610596;-0.141024;-0.749162;0.196677;-0.616593
28803;9.572014;-0.362617;-2.000891;0.016865;0.006161;-0.002478;-0.533447;-0.226318;0.614502;-0.140962;-0.749154;0.196587;-0.616646
28804;9.543730;-0.326130;-1.970138;0.026782;0.005881;-0.010187;-0.536133;-0.218018;0.610352;-0.140824;-0.749230;0.196379;-0.616652
28805;9.507754;-0.357055;-2.015826;0.010018;0.006297;-0.007713;-0.535889;-0.228271;0.606201;-0.140667;-0.749255;0.196226;-0.616706
28806;9.490471;-0.387342;-2.044633;-0.003854;0.004220;-0.002433;-0.534180;-0.230957;0.607422;-0.140752;-0.749229;0.196266;-0.616705
28807;9.522041;-0.397655;-2.015141;0.005614;0.004240;-0.002631;-0.534180;-0.221680;0.606689;-0.140817;-0.749226;0.196270;-0.616692
28808;9.541498;-0.390969;-2.011195;0.010612;-0.000520;-0.004390;-0.535156;-0.224609;0.605957;-0.140711;-0.749265;0.196185;-0.616696
28809;9.560297;-0.390174;-1.993748;0.016348;0.003754;-0.001606;-0.538818;-0.223633;0.613281;-0.140612;-0.749271;0.196105;-0.616736
28810;9.547781;-0.378929;-2.004635;0.015356;0.005480;-0.002583;-0.538818;-0.226807;0.609863;-0.140456;-0.749295;0.195975;-0.616784
28811;9.548657;-0.373383;-2.017042;-0.002974;0.007878;0.001001;-0.533691;-0.228271;0.605713;-0.140474;-0.749255;0.195997;-0.616822
28812;9.534320;-0.337419;-2.001565;-0.000503;0.006844;0.000737;-0.537842;-0.227539;0.610596;-0.140541;-0.749221;0.196047;-0.616831
28813;9.541886;-0.355466;-2.007403;0.002124;0.009700;-0.000761;-0.540283;-0.226807;0.603760;-0.140546;-0.749190;0.196032;-0.616873
28814;9.511430;-0.380712;-2.033674;0.007613;0.010062;-0.000802;-0.541748;-0.225586;0.610107;-0.140544;-0.749115;0.196014;-0.616971
28815;9.510374;-0.392320;-2.005398;0.006611;0.005229;0.002286;-0.539551;-0.224854;0.609863;-0.140460;-0.749091;0.195981;-0.617029
28816;9.519142;-0.399427;-2.038729;-0.002888;0.005196;0.001125;-0.539551;-0.227051;0.600342;-0.140440;-0.749068;0.195993;-0.617058
28817;9.536777;-0.326969;-2.022999;-0.005545;0.002331;0.001269;-0.536865;-0.228516;0.605713;-0.140532;-0.748998;0.196093;-0.617090
28818;9.542807;-0.356227;-2.002884;0.000876;0.000952;-0.000499;-0.536377;-0.228271;0.611572;-0.140580;-0.748988;0.196131;-0.617079
28819;9.554905;-0.373210;-1.977254;0.010831;0.003390;-0.002911;-0.536621;-0.218750;0.603516;-0.140538;-0.749018;0.196066;-0.617073
28820;9.555693;-0.409092;-1.975352;0.007700;0.007381;-0.000676;-0.530518;-0.234131;0.610107;-0.140425;-0.748986;0.196008;-0.617156
28821;9.531875;-0.375204;-2.024840;0.000489;0.005123;0.001715;-0.534424;-0.231201;0.606934;-0.140544;-0.748996;0.196081;-0.617093
28822;9.527334;-0.376400;-2.056396;0.006551;0.005214;-0.000419;-0.535889;-0.233154;0.603271;-0.140602;-0.748985;0.196103;-0.617086
28823;9.540204;-0.388007;-2.043676;0.010171;0.006349;-0.000937;-0.538574;-0.221924;0.607666;-0.140690;-0.748944;0.196131;-0.617108
28824;9.533157;-0.370134;-2.035343;0.016506;0.007657;-0.002827;-0.533203;-0.228760;0.609863;-0.140541;-0.748938;0.196003;-0.617190
28825;9.532819;-0.375791;-2.020283;0.012440;0.010680;-0.002801;-0.536133;-0.225098;0.615234;-0.140535;-0.748935;0.195946;-0.617213
28826;9.545147;-0.392864;-1.993433;0.005228;0.008420;-0.000412;-0.538818;-0.235596;0.601562;-0.140461;-0.748954;0.195886;-0.617226
28827;9.543633;-0.368172;-1.965370;0.007050;0.016905;-0.002771;-0.533203;-0.225342;0.604004;-0.140632;-0.748834;0.195925;-0.617319
28828;9.526181;-0.363180;-1.993341;0.001591;0.016551;-0.001381;-0.529053;-0.231201;0.608643;-0.140680;-0.748761;0.195930;-0.617396
28829;9.537495;-0.352875;-2.065149;-0.003108;0.019828;-0.001970;-0.534424;-0.231934;0.611328;-0.140840;-0.748700;0.195984;-0.617416
28830;9.523635;-0.357669;-2.032596;-0.007378;0.028217;-0.003549;-0.547852;-0.232422;0.607910;-0.141024;-0.748586;0.196021;-0.617501
28831;9.517706;-0.416619;-2.005948;0.000842;0.022207;0.000471;-0.538818;-0.233398;0.609863;-0.141097;-0.748437;0.196022;-0.617664
28832;9.510052;-0.487370;-1.953689;0.012225;0.009494;-0.000321;-0.535156;-0.229980;0.613770;-0.141120;-0.748414;0.196002;-0.617693
28833;9.524881;-0.482192;-1.981872;0.018696;-0.003857;-0.003176;-0.545654;-0.226318;0.608398;-0.141043;-0.748510;0.195925;-0.617619
28834;9.527672;-0.459781;-2.035844;0.017531;0.003245;-0.004406;-0.541260;-0.230225;0.611084;-0.140923;-0.748508;0.195797;-0.617689
28835;9.508047;-0.429773;-2.039076;0.003678;0.014277;-0.007295;-0.536865;-0.231689;0.604248;-0.140985;-0.748462;0.195741;-0.617749
28836;9.527900;-0.381427;-2.048132;-0.002706;0.009106;0.001235;-0.540527;-0.226562;0.604004;-0.141101;-0.748404;0.195821;-0.617767
28837;9.543306;-0.409136;-1.962131;0.007538;0.006220;0.004508;-0.545166;-0.220459;0.614990;-0.141044;-0.748360;0.195827;-0.617831
28838;9.527312;-0.385422;-1.920418;0.022125;-0.001184;0.004073;-0.542236;-0.227783;0.612305;-0.140740;-0.748416;0.195685;-0.617879
28839;9.559934;-0.344636;-1.933612;0.031440;-0.007754;0.001206;-0.540771;-0.222412;0.611328;-0.140508;-0.748509;0.195544;-0.617863
28840;9.573813;-0.345625;-1.949484;0.024458;-0.002256;-0.002948;-0.534912;-0.232422;0.611572;-0.140295;-0.748577;0.195389;-0.617878
28841;9.529808;-0.365055;-1.975583;0.014487;0.001843;-0.005981;-0.543457;-0.228271;0.606201;-0.140317;-0.748629;0.195327;-0.617830
28842;9.544030;-0.405918;-1.975038;0.003134;0.011841;-0.007789;-0.541992;-0.229492;0.606201;-0.140379;-0.748565;0.195276;-0.617909
28843;9.519082;-0.423849;-1.982198;0.001736;0.011182;-0.002490;-0.543457;-0.233643;0.607422;-0.140440;-0.748499;0.195277;-0.617974
28844;9.502742;-0.449564;-2.023913;0.014811;0.005806;0.000905;-0.534180;-0.228516;0.608887;-0.140432;-0.748469;0.195247;-0.618022
28845;9.548216;-0.419754;-2.024305;0.019353;-0.001357;0.002745;-0.524414;-0.224854;0.615234;-0.140343;-0.748523;0.195217;-0.617987
28846;9.535465;-0.409531;-2.036434;0.030118;-0.004519;0.001229;-0.539551;-0.218994;0.609619;-0.140157;-0.748674;0.195122;-0.617876
28847;9.571344;-0.378508;-1.989972;0.036069;-0.001732;-0.002369;-0.528076;-0.231689;0.610840;-0.139855;-0.748747;0.194914;-0.617922
28848;9.532163;-0.356148;-1.997655;0.032948;0.008830;-0.004225;-0.540283;-0.229004;0.611084;-0.139796;-0.748799;0.194788;-0.617912
28849;9.530570;-0.290268;-1.984777;0.017930;0.011103;-0.002813;-0.546143;-0.229736;0.603760;-0.139749;-0.748779;0.194697;-0.617976
28850;9.520338;-0.344994;-2.005607;-0.002664;0.015679;-0.001513;-0.538330;-0.224365;0.610596;-0.139846;-0.748656;0.194717;-0.618096
28851;9.532662;-0.361850;-1.978314;-0.004188;0.008415;0.002453;-0.539551;-0.228027;0.597168;-0.139862;-0.748626;0.194765;-0.618114
28852;9.549355;-0.377779;-1.919551;0.000816;0.003657;0.000725;-0.541016;-0.224609;0.606445;-0.139940;-0.748562;0.194830;-0.618153
28853;9.546192;-0.409433;-1.963831;0.001176;0.002187;0.001097;-0.533447;-0.220703;0.612061;-0.139926;-0.748546;0.194850;-0.618169
28854;9.510436;-0.400675;-2.024761;0.005755;0.004325;0.004150;-0.537354;-0.229004;0.603760;-0.139833;-0.748573;0.194857;-0.618155
28855;9.518648;-0.414191;-2.044344;0.008439;0.007217;0.005362;-0.539307;-0.217773;0.607910;-0.139840;-0.748529;0.194903;-0.618193
28856;9.542036;-0.413238;-1.993658;0.012752;0.005412;0.004245;-0.533691;-0.228271;0.605957;-0.139664;-0.748523;0.194851;-0.618255
28857;9.566854;-0.400684;-1.970138;0.007428;0.006201;-0.000906;-0.535645;-0.224854;0.604248;-0.139709;-0.748516;0.194869;-0.618248
28858;9.546331;-0.418416;-1.945388;0.012225;0.009537;-0.000317;-0.538818;-0.231445;0.606445;-0.139685;-0.748486;0.194845;-0.618298
28859;9.539999;-0.395408;-1.950425;0.008052;0.008681;0.003638;-0.537354;-0.233887;0.608643;-0.139723;-0.748441;0.194885;-0.618331
28860;9.549969;-0.356238;-2.010997;-0.015593;0.014559;0.007265;-0.545166;-0.226807;0.608643;-0.139927;-0.748345;0.195075;-0.618341
28861;9.528977;-0.338464;-1.986736;-0.017373;0.012639;0.006909;-0.545898;-0.231689;0.615234;-0.140020;-0.748241;0.195209;-0.618404
28862;9.538222;-0.377999;-1.905673;-0.006547;0.006774;0.004186;-0.539062;-0.226562;0.603027;-0.140079;-0.748206;0.195284;-0.618409
28863;9.552337;-0.419980;-1.905169;0.003203;0.005320;0.000345;-0.548584;-0.227051;0.612793;-0.140105;-0.748173;0.195311;-0.618435
28864;9.563573;-0.410525;-1.978685;0.003389;0.009231;0.000457;-0.539062;-0.220215;0.612061;-0.140067;-0.748129;0.195281;-0.618505
28865;9.542205;-0.443112;-2.038505;-0.000825;0.017644;0.001555;-0.545410;-0.229248;0.607422;-0.140030;-0.748069;0.195280;-0.618587
28866;9.515329;-0.437235;-2.019048;-0.005324;0.015544;0.002558;-0.541016;-0.229980;0.603516;-0.140102;-0.747968;0.195333;-0.618677
28867;9.536620;-0.419968;-2.040226;-0.008588;0.012929;0.003436;-0.542969;-0.236084;0.601562;-0.140225;-0.747873;0.195439;-0.618730
28868;9.517139;-0.422792;-1.929401;0.002945;0.013399;-0.000040;-0.532471;-0.226074;0.606445;-0.140358;-0.747778;0.195485;-0.618800
28869;9.544958;-0.429095;-1.944284;0.006406;0.010646;0.000697;-0.535400;-0.227783;0.603760;-0.140382;-0.747759;0.195514;-0.618808
28870;9.508098;-0.431125;-1.977157;0.003389;0.009237;0.000462;-0.536621;-0.222900;0.612549;-0.140438;-0.747724;0.195559;-0.618823
28871;9.558204;-0.399410;-1.944632;0.002386;0.001662;-0.000379;-0.537842;-0.220703;0.603271;-0.140408;-0.747763;0.195576;-0.618778
28872;9.566388;-0.411816;-1.964757;0.002003;0.003121;-0.002104;-0.542236;-0.226562;0.601807;-0.140385;-0.747760;0.195577;-0.618787
28873;9.578419;-0.428421;-1.938402;0.006417;0.007918;-0.003233;-0.548584;-0.226074;0.597900;-0.140399;-0.747715;0.195553;-0.618845
28874;9.579607;-0.422418;-1.949922;0.000311;0.017090;-0.003981;-0.535400;-0.226074;0.610107;-0.140447;-0.747585;0.195525;-0.619001
28875;9.561711;-0.422709;-1.963971;-0.005053;0.023334;-0.002630;-0.542480;-0.237061;0.612061;-0.140555;-0.747500;0.195560;-0.619067
28876;9.557337;-0.428596;-1.978904;-0.014362;0.027188;-0.003727;-0.546387;-0.233643;0.605713;-0.140816;-0.747366;0.195649;-0.619142
28877;9.499476;-0.452433;-1.972376;-0.017082;0.027018;-0.002365;-0.541016;-0.225342;0.599609;-0.141044;-0.747197;0.195738;-0.619266
28878;9.538149;-0.444086;-1.947787;-0.011382;0.019294;-0.004694;-0.542725;-0.228760;0.604736;-0.141184;-0.747079;0.195785;-0.619361
28879;9.537169;-0.454264;-1.918060;-0.000231;0.014664;-0.004454;-0.541748;-0.224365;0.611572;-0.141261;-0.747011;0.195785;-0.619426
28880;9.530884;-0.430071;-1.923268;0.007805;0.002007;-0.004443;-0.542969;-0.223877;0.601318;-0.141206;-0.747050;0.195737;-0.619407
28881;9.550386;-0.423522;-1.918681;0.010446;0.007626;-0.000640;-0.542236;-0.233398;0.598877;-0.141140;-0.747015;0.195696;-0.619476
28882;9.553551;-0.442698;-1.957093;0.009585;0.003937;-0.004078;-0.543213;-0.226074;0.608398;-0.141206;-0.746990;0.195693;-0.619493
28883;9.564730;-0.464654;-1.917277;0.005852;0.005473;-0.005061;-0.542236;-0.228271;0.606689;-0.141192;-0.746992;0.195652;-0.619506
28884;9.538219;-0.452442;-1.913266;0.009562;0.003926;-0.005430;-0.544678;-0.231445;0.599609;-0.141188;-0.747003;0.195608;-0.619508
28885;9.559057;-0.475784;-1.921406;0.015473;0.000128;-0.006289;-0.536377;-0.223389;0.604004;-0.141186;-0.747006;0.195544;-0.619525
28886;9.526627;-0.434646;-1.938030;0.009943;0.002467;-0.003704;-0.543213;-0.237549;0.599854;-0.141150;-0.747031;0.195519;-0.619511
28887;9.542363;-0.424015;-1.980095;0.009851;-0.001400;0.001595;-0.550293;-0.218262;0.608398;-0.141213;-0.747021;0.195571;-0.619493
28888;9.562328;-0.453840;-1.974913;0.012734;0.002686;-0.001000;-0.538818;-0.221436;0.601807;-0.141012;-0.747028;0.195457;-0.619566
28889;9.559450;-0.434449;-1.935056;0.021210;0.001729;-0.007400;-0.544678;-0.227295;0.604492;-0.140901;-0.747062;0.195337;-0.619587
28890;9.551298;-0.421425;-1.914599;0.029324;-0.004315;-0.008741;-0.546875;-0.219482;0.598389;-0.140765;-0.747129;0.195173;-0.619590
28891;9.583302;-0.384815;-1.913962;0.035401;-0.001446;-0.005549;-0.545166;-0.224609;0.597412;-0.140506;-0.747160;0.194960;-0.619678
28892;9.558230;-0.362178;-1.937547;0.023619;0.003425;-0.006417;-0.544189;-0.229980;0.608643;-0.140407;-0.747148;0.194837;-0.619754
28893;9.536136;-0.400095;-1.984995;0.011027;0.007371;-0.002733;-0.541504;-0.231689;0.607910;-0.140399;-0.747136;0.194800;-0.619782
28894;9.536327;-0.399923;-1.984112;0.005355;0.003060;-0.002841;-0.536377;-0.223145;0.604248;-0.140454;-0.747142;0.194818;-0.619756
28895;9.546665;-0.427534;-1.930900;0.010844;0.003453;-0.002843;-0.537598;-0.231689;0.599365;-0.140419;-0.747160;0.194798;-0.619749
28896;9.565231;-0.426379;-1.913487;0.028112;-0.003760;-0.007247;-0.539795;-0.219238;0.612549;-0.140392;-0.747212;0.194717;-0.619718
28897;9.585412;-0.373215;-1.938496;0.031197;-0.002289;-0.002943;-0.533936;-0.237549;0.599365;-0.140141;-0.747307;0.194551;-0.619712
28898;9.555153;-0.357827;-1.980958;0.012645;0.005408;-0.001127;-0.541260;-0.228271;0.605469;-0.140277;-0.747286;0.194623;-0.619684
28899;9.549465;-0.370176;-1.984935;0.002999;0.010720;-0.001272;-0.543945;-0.226318;0.606934;-0.140329;-0.747239;0.194650;-0.619721
28900;9.560789;-0.392310;-1.944239;-0.002738;0.009115;-0.000160;-0.548096;-0.224121;0.602539;-0.140370;-0.747193;0.194691;-0.619754
28901;9.565409;-0.390853;-1.910646;-0.004158;0.005708;-0.000147;-0.542969;-0.223389;0.606934;-0.140378;-0.747141;0.194716;-0.619806
28902;9.593143;-0.397111;-1.926183;0.004640;0.008766;0.001690;-0.541504;-0.230225;0.610596;-0.140335;-0.747109;0.194721;-0.619853
28903;9.561643;-0.392615;-1.939972;0.004712;0.015370;0.000312;-0.541748;-0.219482;0.606934;-0.140381;-0.747055;0.194745;-0.619900
28904;9.531130;-0.382487;-1.966481;0.004265;0.019543;-0.000196;-0.541016;-0.223145;0.612061;-0.140334;-0.746977;0.194717;-0.620014
28905;9.531755;-0.382468;-1.963453;0.000621;0.018373;-0.001054;-0.545898;-0.222900;0.610107;-0.140344;-0.746919;0.194718;-0.620081
28906;9.506265;-0.365244;-1.971882;-0.008475;0.007514;0.000948;-0.538574;-0.220703;0.613281;-0.140361;-0.746886;0.194773;-0.620100
28907;9.555856;-0.415959;-1.909347;-0.004992;0.004780;0.003053;-0.548340;-0.226318;0.606689;-0.140346;-0.746898;0.194843;-0.620067
28908;9.563429;-0.434371;-1.915311;-0.003843;0.006966;0.002801;-0.541992;-0.229736;0.615967;-0.140355;-0.746850;0.194894;-0.620106
28909;9.562848;-0.439984;-1.900572;-0.003615;0.008162;0.000336;-0.547119;-0.222412;0.605469;-0.140411;-0.746847;0.194947;-0.620081
28910;9.559707;-0.436101;-1.944645;-0.011125;0.016701;0.006204;-0.542480;-0.224854;0.602539;-0.140437;-0.746736;0.195043;-0.620179
28911;9.528353;-0.431654;-1.957905;-0.020617;0.016611;0.004965;-0.546631;-0.222412;0.599854;-0.140581;-0.746616;0.195213;-0.620236
28912;9.533105;-0.430663;-1.923231;-0.015290;0.013100;0.006215;-0.538330;-0.227539;0.598389;-0.140645;-0.746502;0.195350;-0.620316
28913;9.563558;-0.446940;-1.878939;-0.002248;0.004982;0.003058;-0.545166;-0.222168;0.601562;-0.140721;-0.746463;0.195463;-0.620310
28914;9.545999;-0.442974;-1.909198;0.009425;0.002804;0.002465;-0.541992;-0.225342;0.597900;-0.140631;-0.746449;0.195460;-0.620348
28915;9.520987;-0.421095;-1.932802;0.005194;0.001912;0.003693;-0.547119;-0.234375;0.611816;-0.140617;-0.746425;0.195523;-0.620361
28916;9.522485;-0.452148;-1.944629;-0.003376;0.002812;0.004662;-0.552002;-0.228027;0.608643;-0.140668;-0.746418;0.195609;-0.620331
28917;9.551726;-0.447851;-1.988044;-0.010981;0.001973;0.005269;-0.541504;-0.235840;0.599854;-0.140690;-0.746386;0.195707;-0.620333
28918;9.576242;-0.435167;-1.964852;-0.005579;0.005066;0.005145;-0.541504;-0.231445;0.600342;-0.140830;-0.746334;0.195859;-0.620316
28919;9.597284;-0.486156;-1.872126;0.010888;0.006243;0.005166;-0.541260;-0.230957;0.596924;-0.140826;-0.746299;0.195912;-0.620342
28920;9.615903;-0.527818;-1.837650;0.027259;0.019437;0.003555;-0.541748;-0.231445;0.606445;-0.140758;-0.746208;0.195861;-0.620483
28921;9.597998;-0.572090;-1.835337;0.019801;0.037356;0.011983;-0.534912;-0.224365;0.606934;-0.140703;-0.746032;0.195867;-0.620706
28922;9.493615;-0.599544;-1.813070;0.001872;0.054161;0.012885;-0.544678;-0.220459;0.600586;-0.140754;-0.745768;0.195963;-0.620981
28923;9.462901;-0.693459;-1.874773;-0.025955;0.069563;0.002815;-0.547852;-0.225586;0.604248;-0.140985;-0.745372;0.196070;-0.621370
28924;9.580852;-0.708411;-1.910495;-0.044735;0.080949;-0.025057;-0.539307;-0.225342;0.603516;-0.141520;-0.744946;0.196092;-0.621752
28925;9.747941;-0.861371;-2.108770;-0.067924;0.109032;-0.048154;-0.540527;-0.231445;0.606445;-0.142401;-0.744404;0.196097;-0.622198
28926;9.812741;-0.916757;-2.159596;-0.075899;0.151057;-0.067203;-0.549072;-0.223389;0.593018;-0.143536;-0.743673;0.195990;-0.622845
28927;9.838208;-1.076098;-2.157359;-0.080693;0.163924;-0.077308;-0.542725;-0.233398;0.594238;-0.144670;-0.742839;0.195772;-0.623646
28928;9.412897;-1.075709;-2.375332;-0.092823;0.183882;-0.096012;-0.552734;-0.234863;0.599121;-0.146121;-0.741933;0.195544;-0.624456
28929;9.511438;-1.121791;-2.447959;-0.032367;0.184169;-0.139501;-0.551514;-0.236328;0.592773;-0.147366;-0.741173;0.194691;-0.625333
28930;9.463341;-1.035888;-2.303160;0.036379;0.171919;-0.161224;-0.556641;-0.230957;0.594482;-0.148297;-0.740584;0.193375;-0.626219
28931;9.482356;-1.046698;-2.020477;0.106814;0.135061;-0.155533;-0.543945;-0.235107;0.591553;-0.148618;-0.740268;0.191735;-0.627019
28932;9.585818;-1.186388;-1.786993;0.200080;0.087663;-0.129716;-0.548096;-0.243164;0.592773;-0.148260;-0.740289;0.189903;-0.627637
28933;9.645824;-1.212470;-1.511860;0.292514;0.049202;-0.083024;-0.558594;-0.227783;0.594971;-0.147084;-0.740538;0.187934;-0.628212
28934;9.678284;-1.074320;-1.255091;0.314503;-0.006955;-0.014671;-0.548828;-0.229492;0.594971;-0.145148;-0.740987;0.186256;-0.628633
28935;9.938951;-0.952649;-1.067595;0.269901;-0.000940;0.058126;-0.552979;-0.223877;0.594482;-0.143211;-0.741245;0.185313;-0.629052
28936;10.012653;-0.970425;-0.938390;0.211557;0.097645;0.136206;-0.552979;-0.225098;0.594971;-0.141333;-0.740780;0.185016;-0.630110
28937;9.903107;-1.189687;-0.680703;0.117138;0.158947;0.214852;-0.552246;-0.211182;0.587646;-0.139769;-0.739758;0.185648;-0.631473
28938;9.826015;-1.601613;-0.593490;0.023082;0.199993;0.284698;-0.561523;-0.212158;0.592041;-0.138400;-0.738291;0.187136;-0.633050
28939;9.800043;-2.384776;-0.648542;-0.004295;0.257775;0.355344;-0.565918;-0.222656;0.590088;-0.136913;-0.736370;0.189123;-0.635016
28940;9.749544;-2.960885;-0.438548;0.020010;0.286991;0.503923;-0.563721;-0.210449;0.589600;-0.134657;-0.734066;0.191897;-0.637331
28941;9.452520;-3.276208;-0.279484;0.071749;0.300534;0.728632;-0.568359;-0.202881;0.581299;-0.130879;-0.731383;0.195772;-0.640018
28942;8.934924;-3.723004;-0.221591;0.209670;0.345986;0.999938;-0.579834;-0.191650;0.584961;-0.124886;-0.728102;0.200510;-0.643480
28943;7.986885;-4.318973;-0.039071;0.426585;0.453835;1.303016;-0.582275;-0.171875;0.577881;-0.116097;-0.723884;0.205786;-0.648201
28944;7.167694;-4.891482;0.109647;0.732126;0.555203;1.596422;-0.598633;-0.154785;0.568115;-0.104035;-0.718770;0.211070;-0.654214
28945;7.826461;-5.107319;-0.446274;1.074150;0.557183;1.849372;-0.602539;-0.124268;0.562500;-0.088534;-0.713254;0.215914;-0.660917
28946;10.571997;-4.497435;-0.618490;1.431334;0.717753;2.018980;-0.612549;-0.094971;0.557373;-0.070240;-0.706525;0.219623;-0.669070
28947;13.696303;-3.648702;-1.018000;1.526914;1.195596;2.089867;-0.632568;-0.054932;0.557861;-0.051887;-0.696688;0.222844;-0.679907
28948;13.382390;-2.139232;-0.014410;1.109702;1.689016;2.059012;-0.637207;-0.022705;0.539307;-0.036968;-0.683551;0.227909;-0.692422
28949;12.075143;-1.212741;0.663044;0.364417;1.735637;2.016603;-0.660400;-0.001709;0.516113;-0.026671;-0.669640;0.236966;-0.703362
28950;11.143156;-0.154425;1.217733;-0.619115;1.592322;1.931421;-0.676514;0.021973;0.503174;-0.022070;-0.656170;0.251139;-0.711254
28951;10.394407;0.356148;0.549105;-1.412081;1.107144;1.843395;-0.686768;0.035889;0.490234;-0.021209;-0.645318;0.269489;-0.714486
28952;10.688873;-0.623042;-0.713503;-1.686356;0.744832;1.705984;-0.684570;0.038818;0.479004;-0.021732;-0.636590;0.288625;-0.714826
28953;10.511180;-2.965390;-2.308623;-1.356321;0.594651;1.514690;-0.689453;0.048584;0.478027;-0.021325;-0.629041;0.304712;-0.714845
28954;9.434975;-5.232833;-1.796260;-0.834233;0.579335;1.332810;-0.691895;0.061035;0.470703;-0.019194;-0.621984;0.316703;-0.715868
28955;8.434667;-6.184212;-0.441212;-0.279277;0.534710;1.105293;-0.702148;0.068115;0.464600;-0.015360;-0.615782;0.324158;-0.717982
28956;7.763652;-5.594317;0.003788;0.287078;0.403807;0.838190;-0.699219;0.080811;0.449951;-0.009903;-0.611094;0.326794;-0.720883
28957;7.121923;-4.719956;-0.160659;0.742176;0.265012;0.585721;-0.697021;0.091797;0.454590;-0.003216;-0.607907;0.325328;-0.724293
28958;6.700746;-4.116932;-0.076127;1.097205;0.099661;0.362810;-0.701416;0.112061;0.453857;0.004284;-0.606297;0.320726;-0.727682
28959;6.678453;-3.562368;0.249254;1.402461;-0.042257;0.180078;-0.695801;0.115723;0.447998;0.012722;-0.605943;0.313310;-0.731101
28960;6.804690;-3.294944;0.618169;1.555652;-0.144556;0.032615;-0.705811;0.126221;0.441895;0.021156;-0.606491;0.304150;-0.734312
28961;6.880838;-3.284916;1.204102;1.555641;-0.208972;-0.073559;-0.697998;0.138184;0.444580;0.029141;-0.607592;0.294188;-0.737181
28962;7.018830;-3.580428;1.662616;1.415970;-0.235468;-0.101562;-0.699951;0.145020;0.440918;0.036281;-0.608867;0.285025;-0.739409
28963;6.989973;-3.918316;1.604707;1.176411;-0.215565;-0.061213;-0.688232;0.159424;0.439697;0.042394;-0.609921;0.277409;-0.741110
28964;6.974620;-4.119795;1.469849;0.872392;-0.212251;-0.004782;-0.693604;0.157227;0.442139;0.047376;-0.610864;0.272091;-0.742002
28965;6.888168;-3.960941;1.432292;0.571280;-0.230596;-0.006262;-0.691162;0.163330;0.448975;0.050718;-0.612045;0.268509;-0.742113
28966;7.222631;-4.069301;1.658230;0.238480;-0.273601;-0.058300;-0.689209;0.165527;0.447021;0.052127;-0.613748;0.266814;-0.741220
28967;7.391061;-4.466636;1.683753;-0.115768;-0.246069;-0.110034;-0.685791;0.159912;0.449951;0.051397;-0.615530;0.266979;-0.739731
28968;7.320220;-5.069080;2.142846;-0.404234;-0.198729;-0.142272;-0.673828;0.162842;0.461670;0.048819;-0.617218;0.268780;-0.737845
28969;7.257666;-5.696022;2.738242;-0.541242;-0.202649;-0.157042;-0.683838;0.157715;0.455322;0.045484;-0.618995;0.271728;-0.735487
28970;7.273942;-6.281573;3.208470;-0.500224;-0.217540;-0.174703;-0.683105;0.148682;0.466797;0.042427;-0.620859;0.273933;-0.733277
28971;7.256555;-6.967527;3.303052;-0.356430;-0.191253;-0.156287;-0.684082;0.144043;0.473389;0.040045;-0.622474;0.275500;-0.731452
28972;7.342920;-7.409082;3.039558;-0.139526;-0.135025;-0.130558;-0.684570;0.138916;0.466553;0.038792;-0.623610;0.275940;-0.730385
28973;7.252467;-7.250494;2.726776;0.129910;-0.085887;-0.094479;-0.681885;0.144775;0.464111;0.039083;-0.624273;0.274714;-0.730266
28974;7.067783;-6.609795;2.330643;0.302191;-0.122124;-0.040102;-0.677979;0.147705;0.471191;0.040808;-0.624950;0.272726;-0.730338
28975;7.212844;-5.818489;2.046880;0.277384;-0.258685;0.033346;-0.677002;0.149902;0.470703;0.043106;-0.626288;0.271445;-0.729536
28976;7.663995;-5.351183;1.705719;0.066261;-0.448125;0.130386;-0.679443;0.147705;0.473633;0.045343;-0.628625;0.271794;-0.727257
28977;8.163092;-5.235210;1.406524;-0.252976;-0.644590;0.188790;-0.667725;0.153076;0.491699;0.046676;-0.632143;0.274097;-0.723248
28978;8.522372;-5.100008;0.755843;-0.703616;-0.818418;0.146054;-0.657227;0.145020;0.501221;0.045760;-0.636922;0.279213;-0.717130
28979;9.551995;-4.742557;-1.657683;-1.319267;-1.146669;0.016596;-0.656494;0.135742;0.510010;0.041485;-0.644105;0.287172;-0.707771
28980;14.109511;-4.888128;-1.517832;-1.161279;-1.410689;-0.565995;-0.651611;0.117432;0.525146;0.035382;-0.654054;0.290544;-0.697529
28981;18.163516;-8.462453;1.752279;-0.351233;-0.978156;-1.060870;-0.640137;0.107910;0.531738;0.029770;-0.662337;0.286350;-0.691684
28982;17.829663;-12.244783;0.218122;0.680884;0.196136;-0.724603;-0.647461;0.110352;0.533203;0.029069;-0.662694;0.278364;-0.694626
28983;9.861202;-4.346009;-0.360555;1.309847;0.066123;-0.259113;-0.650635;0.115723;0.525146;0.034901;-0.662496;0.269296;-0.698112
28984;5.375754;4.477264;0.757219;0.933942;-0.342265;-0.504947;-0.638184;0.121582;0.526367;0.038086;-0.665264;0.260745;-0.698560
28985;5.293386;7.552008;1.066345;-0.539657;-0.525705;-0.998394;-0.638672;0.104980;0.536621;0.030604;-0.670550;0.258210;-0.694805
28986;6.601055;6.231656;-0.903663;-2.189683;-0.460045;-1.234784;-0.639404;0.070068;0.548096;0.012367;-0.676222;0.263807;-0.687733
28987;9.846357;0.045537;-3.791760;-3.196242;-0.417429;-1.076131;-0.625732;0.037354;0.557861;-0.010758;-0.681008;0.275857;-0.678244
28988;13.053374;-5.036271;-5.365720;-3.033691;-0.325288;-0.699625;-0.625000;-0.002197;0.563721;-0.030934;-0.683918;0.289248;-0.669055
28989;9.243131;-6.812250;-3.487629;-2.074192;-0.176701;-0.489962;-0.622803;-0.033447;0.562256;-0.044873;-0.685425;0.298253;-0.662740
28990;7.605561;-5.570834;-2.666580;-1.188055;-0.248163;-0.535753;-0.624756;-0.042969;0.550781;-0.053960;-0.687620;0.302006;-0.658072
28991;7.838429;-4.070383;-2.468160;-0.480748;-0.298132;-0.689111;-0.617920;-0.061523;0.576660;-0.059635;-0.690670;0.300743;-0.654959
28992;8.511028;-2.685574;-1.862086;-0.358651;-0.279377;-0.732367;-0.626465;-0.067139;0.562988;-0.064871;-0.693862;0.298908;-0.651921
28993;8.791670;-2.142154;-1.954772;-0.606619;-0.252211;-0.670920;-0.620361;-0.077637;0.572266;-0.071240;-0.696502;0.298293;-0.648714
28994;8.747896;-1.993213;-2.097468;-0.736568;-0.281498;-0.631998;-0.613037;-0.086182;0.578857;-0.078004;-0.699115;0.298780;-0.644890
28995;8.686810;-1.738517;-2.063231;-0.817051;-0.387101;-0.592591;-0.604980;-0.109375;0.571289;-0.084658;-0.702117;0.300130;-0.640146
28996;8.705881;-1.480594;-2.274361;-0.829047;-0.438358;-0.569335;-0.598145;-0.113281;0.574707;-0.091405;-0.705221;0.301614;-0.635088
28997;8.778924;-1.505830;-2.260260;-0.863483;-0.431193;-0.566912;-0.600830;-0.125488;0.584961;-0.098200;-0.708195;0.303348;-0.629918
28998;9.035857;-1.539133;-2.190258;-0.934479;-0.402035;-0.611523;-0.592529;-0.146240;0.580078;-0.105564;-0.711056;0.305037;-0.624666
28999;9.262889;-1.569433;-2.397802;-0.920449;-0.381043;-0.684927;-0.588623;-0.162598;0.579102;-0.113468;-0.713898;0.306162;-0.619467
29000;9.122611;-1.554238;-2.485662;-0.840278;-0.382839;-0.772822;-0.581299;-0.174805;0.589600;-0.121375;-0.716961;0.306283;-0.614350
29001;8.903898;-1.637947;-2.373696;-0.752650;-0.409569;-0.860330;-0.567627;-0.191162;0.583496;-0.128959;-0.720472;0.305498;-0.609065
29002;9.040174;-1.629677;-2.303924;-0.624277;-0.436278;-0.947198;-0.575684;-0.204346;0.588135;-0.136293;-0.724354;0.303639;-0.603770
29003;9.043458;-1.529407;-2.302913;-0.449485;-0.421664;-1.004014;-0.565430;-0.219727;0.589355;-0.142764;-0.728436;0.300266;-0.599033
29004;8.966530;-1.536277;-2.161813;-0.374671;-0.401501;-1.026740;-0.561035;-0.236572;0.597900;-0.148993;-0.732487;0.296374;-0.594497
29005;8.848967;-1.489931;-2.059571;-0.358970;-0.442596;-1.043116;-0.549072;-0.252441;0.590576;-0.155030;-0.736781;0.292248;-0.589670
29006;8.910424;-1.568969;-1.614753;-0.357156;-0.496670;-1.040315;-0.522705;-0.257080;0.594482;-0.161119;-0.741182;0.288249;-0.584468
29007;9.119971;-1.890312;-1.299391;-0.472632;-0.527205;-0.987323;-0.522461;-0.267822;0.596680;-0.167513;-0.745419;0.285417;-0.578642
29008;9.287939;-2.190690;-1.256877;-0.628218;-0.464181;-0.938146;-0.520996;-0.283691;0.602051;-0.174721;-0.748920;0.283415;-0.572946
29009;9.331227;-2.552780;-1.132617;-0.724423;-0.336193;-0.905776;-0.507080;-0.298340;0.599121;-0.182587;-0.751541;0.281737;-0.567867
29010;9.323963;-3.334585;-1.005849;-0.742242;-0.231867;-0.835070;-0.506592;-0.313721;0.594238;-0.190518;-0.753399;0.280487;-0.563400
29011;8.429470;-4.289553;-1.111474;-0.680815;-0.170366;-0.756738;-0.493652;-0.324951;0.593262;-0.197878;-0.754778;0.279290;-0.559599
29012;7.449454;-5.082459;-1.665375;-0.551092;-0.114167;-0.628629;-0.492676;-0.334473;0.598145;-0.203918;-0.755802;0.278244;-0.556562
29013;8.337269;-5.442279;-2.657649;-0.437422;-0.096219;-0.380250;-0.495117;-0.343018;0.582764;-0.207990;-0.756386;0.278111;-0.554324
29014;8.934210;-4.353569;-3.239368;-0.170326;-0.165064;-0.170460;-0.484863;-0.348877;0.588623;-0.209494;-0.757107;0.278305;-0.552673
29015;9.861344;-3.178022;-3.450123;0.098439;-0.313366;-0.117101;-0.481689;-0.349121;0.595215;-0.208645;-0.758935;0.277826;-0.550725
29016;10.981987;-2.150486;-2.110285;0.113250;-0.357383;-0.122751;-0.481201;-0.348389;0.592773;-0.207568;-0.761027;0.277275;-0.548518
29017;12.234496;-1.805285;-1.352883;-0.143198;-0.182444;-0.105029;-0.489502;-0.347656;0.602783;-0.208527;-0.761766;0.277762;-0.546880
29018;13.128742;-3.167122;-2.934013;-0.381757;0.092271;-0.050850;-0.484131;-0.347900;0.592041;-0.211200;-0.760760;0.279050;-0.546599
29019;12.994490;-4.778466;-3.517313;-0.196814;0.380782;0.060867;-0.487793;-0.353760;0.581055;-0.212970;-0.758451;0.279832;-0.548717
29020;13.725561;-6.088802;-2.261805;0.264584;0.560124;0.318591;-0.487305;-0.339844;0.581055;-0.211194;-0.755472;0.279892;-0.553461
29021;12.584551;-5.517060;0.810279;0.641268;0.991129;0.748224;-0.508057;-0.331543;0.582520;-0.205938;-0.750166;0.280101;-0.562479
29022;10.146469;-4.293985;1.610070;0.673587;1.513612;1.136114;-0.522705;-0.319092;0.570557;-0.199792;-0.741428;0.281546;-0.575412
29023;8.261054;-2.255201;0.278179;0.378364;1.794557;1.422065;-0.543945;-0.295410;0.550537;-0.194777;-0.729926;0.285661;-0.589633
29024;10.383613;-0.317362;-1.272665;-0.056072;1.754717;1.941375;-0.569092;-0.269043;0.527832;-0.189696;-0.716341;0.295058;-0.603168
29025;13.563972;0.258901;-2.346318;-0.420564;1.748013;2.385254;-0.583252;-0.259277;0.512207;-0.184435;-0.700708;0.308793;-0.616148
29026;14.609005;1.006423;-3.612758;-0.349254;1.944820;2.358525;-0.614258;-0.239990;0.499268;-0.179334;-0.683833;0.321470;-0.629975
29027;13.840274;0.287489;-3.487239;-0.111975;1.914814;2.052204;-0.638672;-0.216553;0.476318;-0.174246;-0.667905;0.330945;-0.643442
29028;12.963566;-1.998770;-2.259583;-0.067641;1.811720;1.957393;-0.657471;-0.197021;0.455566;-0.169056;-0.652491;0.339637;-0.655989
29029;11.804997;-3.074398;-1.925608;-0.113779;1.580595;2.054705;-0.669189;-0.178711;0.437744;-0.162868;-0.637682;0.349274;-0.666966
29030;11.268910;-2.553335;-2.316077;0.093414;1.351070;2.181563;-0.684326;-0.141602;0.412109;-0.154149;-0.623766;0.358583;-0.677179
29031;10.694235;-2.849886;-2.445361;0.377341;1.159158;2.172402;-0.690674;-0.122070;0.399902;-0.143355;-0.611024;0.366344;-0.686943
29032;10.386756;-2.998252;-2.476011;0.680303;0.864054;1.982392;-0.700684;-0.095459;0.409180;-0.131163;-0.600683;0.371597;-0.695624
29033;9.924686;-2.393668;-2.135136;0.990511;0.644199;1.772465;-0.705322;-0.072021;0.384033;-0.117893;-0.592415;0.374113;-0.703694
29034;9.159734;-2.329226;-1.924660;1.167727;0.504299;1.638808;-0.709473;-0.042480;0.386963;-0.104076;-0.585361;0.374949;-0.711290
29035;8.359302;-1.980714;-1.345968;1.353387;0.363703;1.524336;-0.699951;-0.015625;0.384277;-0.089556;-0.579488;0.374139;-0.718466
29036;7.446447;-1.948332;-0.854009;1.654212;0.206453;1.403008;-0.696533;0.008789;0.380859;-0.073795;-0.574976;0.370943;-0.725506
29037;6.208468;-1.719358;-0.886455;1.764598;0.029250;1.252596;-0.717773;0.033936;0.370850;-0.057844;-0.571879;0.366341;-0.731712
29038;5.231234;-1.084663;-1.273307;1.768312;-0.141754;1.030501;-0.709473;0.054443;0.377441;-0.042690;-0.570328;0.360624;-0.736786
29039;4.727963;-0.323784;-1.446133;1.830173;-0.275310;0.747278;-0.697510;0.069092;0.381348;-0.028570;-0.570309;0.353128;-0.741102
29040;4.405797;0.244591;-1.311165;1.796236;-0.466506;0.443522;-0.705322;0.097412;0.378662;-0.015918;-0.572207;0.344349;-0.744144
29041;4.322951;0.699501;-0.764918;1.506039;-0.665381;0.134993;-0.694580;0.105469;0.389893;-0.005987;-0.576060;0.335843;-0.745204
29042;4.863773;0.673125;0.000622;0.967818;-0.719130;-0.129780;-0.690430;0.102051;0.386230;-0.000134;-0.580880;0.329359;-0.744380
29043;5.883692;-0.438409;-0.010825;0.310137;-0.704326;-0.292345;-0.679688;0.099609;0.410400;0.001487;-0.586014;0.326133;-0.741770
29044;7.194830;-3.235364;0.115406;-0.212066;-0.555009;-0.433426;-0.681641;0.096924;0.404297;-0.000719;-0.590592;0.325433;-0.738440
29045;7.251169;-6.310424;1.169137;-0.225510;-0.710011;-0.584667;-0.667969;0.093750;0.420898;-0.003500;-0.596506;0.324051;-0.734274
29046;7.676537;-8.749841;1.120068;0.401357;-0.535339;-0.833133;-0.670898;0.080078;0.437500;-0.005156;-0.601998;0.317578;-0.732609
29047;8.238833;-9.120726;2.194174;1.236216;-0.143160;-0.942649;-0.653320;0.079102;0.425049;-0.004330;-0.605345;0.305412;-0.735025
29048;8.645733;-9.503018;4.219360;1.677891;-0.276384;-0.446304;-0.668457;0.077148;0.423828;0.002104;-0.608142;0.293001;-0.737773
29049;9.382578;-8.967803;4.966051;1.496168;-0.413080;0.439560;-0.661377;0.093506;0.417480;0.013397;-0.609498;0.286143;-0.739226
29050;9.488482;-6.571451;4.499856;0.882328;-0.495005;0.972254;-0.649658;0.115234;0.427002;0.025047;-0.610055;0.285724;-0.738625
29051;8.666147;-4.844404;2.818888;-0.040289;-0.477555;1.102426;-0.645996;0.116699;0.432861;0.032765;-0.610312;0.291614;-0.735803
29052;6.438333;-4.169776;1.601792;-0.581128;-0.618847;0.935275;-0.644775;0.126465;0.439453;0.037049;-0.611923;0.299898;-0.730917
29053;5.777734;-3.217270;0.669698;-1.096750;-1.013730;0.461517;-0.625488;0.126465;0.462158;0.036802;-0.617193;0.308741;-0.722770
29054;9.234220;-2.073860;0.209149;-1.642298;-1.360333;-0.315138;-0.623047;0.115479;0.483643;0.029956;-0.626564;0.316692;-0.711496
29055;19.196100;-3.874268;2.174561;-1.051817;-1.081703;-1.310417;-0.613525;0.089600;0.491211;0.019552;-0.636578;0.315912;-0.703268
29056;24.111743;-13.406379;-2.121205;0.413590;-0.128539;-1.113651;-0.615234;0.074463;0.497803;0.015561;-0.640135;0.307667;-0.703794
29057;15.489206;-9.284378;-3.908366;1.369630;-0.100320;0.388521;-0.616699;0.083008;0.493408;0.025406;-0.639475;0.301799;-0.706642
29058;5.713846;4.080562;-2.903865;1.540258;0.259640;0.194251;-0.612793;0.109863;0.488281;0.034105;-0.637048;0.293927;-0.711768
29059;1.348786;4.635335;-2.300203;1.350867;-0.419496;-0.654347;-0.615723;0.105713;0.484375;0.038422;-0.640679;0.282417;-0.712948
29060;3.550172;3.372403;-4.530775;0.225038;-1.063333;-1.122127;-0.604980;0.106445;0.500000;0.035458;-0.649494;0.274835;-0.708072
29061;9.078611;2.278541;-6.039163;-0.451998;-1.197668;-1.355865;-0.599854;0.079834;0.514404;0.027751;-0.659708;0.269879;-0.700843
29062;14.824669;2.428041;-5.146538;-0.762353;-1.178899;-1.124517;-0.591797;0.060791;0.524414;0.019639;-0.669217;0.267937;-0.692801
29063;11.883291;-1.180371;-2.339980;-1.077577;-0.745902;-0.784116;-0.580078;0.041992;0.534668;0.010764;-0.675394;0.269716;-0.686280
29064;9.759635;-2.854776;-0.494357;-0.992361;-0.685270;-0.816160;-0.580322;0.013428;0.548096;0.002046;-0.681188;0.270782;-0.680188
29065;9.427977;-2.283434;-0.489514;-1.164406;-0.569804;-0.958666;-0.569336;0.004395;0.549316;-0.008718;-0.686540;0.271969;-0.674255
29066;8.410078;-1.664697;-2.679826;-1.152117;-0.579062;-1.027848;-0.564453;-0.014160;0.557129;-0.019777;-0.691975;0.272638;-0.668167
29067;7.943258;-1.631329;-3.295564;-1.112823;-0.670696;-1.073687;-0.555420;-0.046875;0.566406;-0.030653;-0.697899;0.272785;-0.661503
29068;8.401488;-1.907139;-3.931075;-0.945910;-0.842427;-1.075340;-0.550049;-0.041260;0.575928;-0.040171;-0.704680;0.271992;-0.654090
29069;8.472366;-2.160074;-3.738007;-0.617617;-0.981314;-1.105353;-0.536865;-0.073730;0.585693;-0.047604;-0.712266;0.269230;-0.646472
29070;9.228932;-2.101370;-2.987078;-0.269079;-0.927732;-1.157501;-0.522949;-0.078125;0.582520;-0.053361;-0.719700;0.264217;-0.639823
29071;9.531008;-2.014222;-2.259424;0.014611;-0.754733;-1.176378;-0.520508;-0.102295;0.595703;-0.057891;-0.726275;0.257462;-0.634734
29072;9.370839;-1.558372;-1.385966;0.032668;-0.587024;-1.174608;-0.517334;-0.109863;0.593262;-0.062654;-0.731875;0.250508;-0.630618
29073;8.802507;-1.051676;-0.826608;-0.263938;-0.515332;-1.194548;-0.503174;-0.122314;0.602783;-0.069474;-0.736897;0.244921;-0.626235
29074;8.748269;-0.434564;-0.744566;-0.701157;-0.581646;-1.216961;-0.494629;-0.136230;0.601074;-0.078950;-0.741953;0.241479;-0.620451
29075;9.057567;-0.073989;-1.016939;-1.074504;-0.571919;-1.219269;-0.484619;-0.156738;0.606201;-0.090753;-0.746583;0.239897;-0.613863
29076;9.214520;-0.525502;-1.109085;-1.248326;-0.433656;-1.181173;-0.484375;-0.173340;0.618652;-0.103699;-0.750138;0.239280;-0.607687
29077;9.095944;-1.263040;-1.821206;-1.222567;-0.296397;-1.113624;-0.469727;-0.201416;0.605957;-0.116396;-0.752731;0.238784;-0.602354
29078;8.871991;-1.948151;-2.188600;-1.039343;-0.290391;-1.083237;-0.467529;-0.222412;0.603516;-0.127782;-0.755275;0.237509;-0.597345
29079;9.256133;-2.905891;-1.350139;-0.861072;-0.446452;-1.048565;-0.450684;-0.239502;0.607178;-0.137544;-0.758601;0.235698;-0.591653
29080;8.877189;-4.217910;-0.537926;-0.798169;-0.570460;-1.015836;-0.456299;-0.256104;0.608887;-0.146484;-0.762439;0.233897;-0.585254
29081;7.869956;-5.150488;-0.543920;-0.887277;-0.536758;-1.060056;-0.430664;-0.269287;0.607666;-0.156249;-0.765976;0.232181;-0.578756
29082;7.134915;-5.360827;0.009283;-0.925330;-0.310933;-1.059822;-0.433350;-0.283936;0.608887;-0.166667;-0.768260;0.230329;-0.573539
29083;8.776675;-6.266547;-2.239020;-0.649733;-0.123338;-0.741797;-0.420898;-0.301514;0.606689;-0.174141;-0.769336;0.228921;-0.570432
29084;9.522468;-6.628362;-3.843473;-0.128099;-0.119798;-0.396820;-0.418945;-0.303223;0.607910;-0.176628;-0.770461;0.227246;-0.568816
29085;9.876320;-6.091060;-4.140736;0.293289;-0.235851;-0.237672;-0.418457;-0.298584;0.617188;-0.175429;-0.772444;0.224779;-0.567476
29086;10.420906;-3.860853;-2.661494;0.268121;-0.245374;-0.077476;-0.410156;-0.301514;0.612793;-0.173611;-0.774125;0.223489;-0.566253
29087;11.922702;-3.051627;-2.716582;-0.206929;-0.045001;0.165371;-0.413574;-0.299805;0.603027;-0.174082;-0.773714;0.225726;-0.565782
29088;12.834563;-3.812683;-2.661364;-0.454467;0.251802;0.445664;-0.421387;-0.304932;0.614746;-0.175381;-0.771002;0.230508;-0.567154
29089;13.650302;-5.569306;-1.350285;-0.343952;0.569969;0.795279;-0.420166;-0.305664;0.604248;-0.174919;-0.766232;0.236542;-0.571261
29090;12.573241;-5.853188;0.440895;-0.201608;1.285266;1.275105;-0.443848;-0.300781;0.592285;-0.172647;-0.757199;0.243893;-0.580826
29091;8.439080;-3.394130;1.604155;-0.363378;1.806934;1.609688;-0.462158;-0.284668;0.572021;-0.170781;-0.744479;0.253316;-0.593646
29092;8.771801;-0.481889;0.560197;-0.617862;1.723784;1.983701;-0.487793;-0.277344;0.566650;-0.168391;-0.730672;0.266319;-0.605671
29093;12.071077;1.077698;-0.733392;-0.919738;1.647498;2.484122;-0.514648;-0.272461;0.551025;-0.165049;-0.715280;0.283836;-0.616904
29094;15.422916;0.925699;-3.324623;-1.052014;1.836889;2.811849;-0.544434;-0.256592;0.518066;-0.161135;-0.697405;0.303498;-0.628929
29095;15.881130;-0.048011;-3.845832;-0.930814;2.092947;2.633196;-0.562988;-0.232910;0.495361;-0.157966;-0.678204;0.320876;-0.641969
29096;15.276705;-2.198004;-1.467644;-0.862839;1.990314;2.357275;-0.600586;-0.213135;0.471191;-0.155495;-0.659848;0.336212;-0.653745
29097;14.032470;-3.225356;-0.577446;-0.871909;1.699577;2.331258;-0.619385;-0.208740;0.456543;-0.152298;-0.642691;0.351602;-0.663423
29098;13.107972;-2.945679;-1.332553;-0.457105;1.371609;2.310490;-0.633057;-0.182861;0.441162;-0.145949;-0.627563;0.364797;-0.672150
29099;12.439622;-2.877605;-1.691780;0.192469;1.152382;2.318404;-0.650391;-0.168945;0.428711;-0.135421;-0.614118;0.374481;-0.681384
29100;11.743384;-3.498956;-1.862163;0.820735;0.902828;2.142162;-0.656982;-0.129883;0.420166;-0.121843;-0.603073;0.379808;-0.690799
29101;11.108221;-2.948164;-1.713329;1.258713;0.640635;1.889760;-0.670166;-0.106934;0.422119;-0.106639;-0.594536;0.381459;-0.699746
29102;10.120759;-2.497649;-1.827349;1.485351;0.520361;1.738863;-0.677734;-0.071533;0.420166;-0.090771;-0.587152;0.380999;-0.708416
29103;8.989713;-1.821657;-1.390878;1.599259;0.421022;1.640756;-0.672852;-0.045410;0.414062;-0.074577;-0.580529;0.379317;-0.716619
29104;7.616179;-1.665458;-0.566860;1.766660;0.338383;1.545627;-0.685791;-0.008545;0.402832;-0.057854;-0.574582;0.376078;-0.724620
29105;6.411105;-1.587447;-0.756368;1.837421;0.161187;1.453112;-0.682617;0.005859;0.406006;-0.040773;-0.569807;0.371906;-0.731672
29106;5.379219;-1.257406;-1.423614;1.872957;-0.045977;1.298940;-0.688721;0.039062;0.395020;-0.023808;-0.566574;0.366715;-0.737528
29107;4.652489;-0.435933;-1.719488;2.047298;-0.178137;1.043927;-0.677002;0.070557;0.410400;-0.007176;-0.564760;0.359140;-0.742976
29108;4.307813;0.647066;-1.730963;2.134743;-0.311769;0.720175;-0.678955;0.087158;0.401123;0.008266;-0.564545;0.349377;-0.747768
29109;4.235061;1.411391;-1.445273;1.984096;-0.507729;0.354454;-0.672119;0.101562;0.416504;0.021287;-0.566442;0.338699;-0.750982
29110;4.278389;1.803545;-1.157199;1.602337;-0.748782;-0.021553;-0.673096;0.112305;0.415527;0.030828;-0.570833;0.328501;-0.751855
29111;4.255083;1.974184;-0.944780;0.982272;-0.898434;-0.356592;-0.673828;0.112793;0.418945;0.035725;-0.577143;0.320490;-0.750277
29112;4.130324;2.351342;-0.268317;0.307752;-0.897261;-0.595496;-0.667725;0.117920;0.437744;0.035879;-0.584224;0.315505;-0.746894
29113;4.379080;1.976180;0.264905;-0.395255;-0.843713;-0.768359;-0.660889;0.100830;0.446045;0.031390;-0.591586;0.314032;-0.741906
29114;5.161458;-0.750759;1.294533;-0.779578;-0.816199;-1.067222;-0.657715;0.089600;0.456543;0.023084;-0.599583;0.313416;-0.736028
29115;7.497573;-3.900981;4.345832;-0.576345;-0.805631;-1.500452;-0.650146;0.054443;0.462402;0.013105;-0.608492;0.309325;-0.730674
29116;10.414945;-8.789274;5.548978;0.366552;-0.424292;-1.775762;-0.643555;0.045166;0.472168;0.005245;-0.615544;0.298060;-0.729546
29117;16.121061;-14.674330;4.201421;0.966453;-0.196678;-1.419922;-0.647705;0.040771;0.472168;0.002060;-0.620163;0.284920;-0.730899
29118;16.499826;-16.901735;2.658216;0.052833;-0.757928;-0.020502;-0.642822;0.035400;0.479492;0.004010;-0.624813;0.284544;-0.727068
29119;11.760976;-12.495419;4.096852;-0.278137;-0.610161;0.744234;-0.639893;0.038086;0.482178;0.008518;-0.626725;0.290163;-0.723152
29120;8.576766;-8.123679;2.041715;-0.173588;-0.418783;0.962585;-0.629395;0.045898;0.488281;0.014426;-0.626896;0.296295;-0.720418
29121;7.384335;-3.682670;-2.444453;-0.678646;-0.670551;0.749484;-0.624756;0.055176;0.505371;0.017038;-0.629106;0.304296;-0.715080
29122;11.347834;2.419527;-4.044631;-1.083988;-0.892888;-0.106526;-0.617920;0.035889;0.511963;0.012985;-0.634792;0.310159;-0.707582
29123;16.216775;1.105635;3.277849;-0.654627;-0.492060;-1.023456;-0.619873;0.029785;0.514648;0.004760;-0.640362;0.308630;-0.703322
29124;23.520935;-11.161810;6.696162;0.178914;0.357125;-1.243551;-0.620361;0.013428;0.511963;-0.002492;-0.641418;0.301013;-0.705668
29125;14.336646;-12.893517;0.055009;0.400615;0.755707;0.059990;-0.623779;0.012207;0.509277;-0.001891;-0.636811;0.299018;-0.710673
29126;4.136701;1.690344;-4.137200;0.814969;-0.425563;0.470790;-0.623047;0.030762;0.506348;0.006285;-0.638140;0.296764;-0.710401
29127;1.992501;7.307212;-5.035044;1.193478;-0.996240;-0.084709;-0.616943;0.039551;0.523438;0.014595;-0.644125;0.289245;-0.707974
29128;2.342888;6.036914;-4.041320;0.008033;-1.014431;-0.659676;-0.609863;0.029785;0.525635;0.013190;-0.651667;0.285580;-0.702566
29129;7.031782;2.760524;-4.695647;-1.225472;-1.047375;-0.894191;-0.599365;0.015625;0.547852;0.003789;-0.659990;0.287799;-0.693953
29130;13.510727;-1.510148;-5.437151;-1.282926;-0.861436;-0.866843;-0.599609;-0.006104;0.548828;-0.006217;-0.667026;0.290434;-0.686065
29131;12.022445;-1.337190;-3.180496;-0.871187;-0.262740;-0.729255;-0.591309;-0.029541;0.552979;-0.014599;-0.670226;0.291397;-0.682401
29132;9.097504;-2.631823;-2.034185;-0.676429;-0.411938;-0.688452;-0.586182;-0.029297;0.553467;-0.021298;-0.674144;0.291469;-0.678323
29133;9.695372;-3.383221;-1.099012;-0.529699;-0.470106;-0.713286;-0.581299;-0.046387;0.562988;-0.027171;-0.678427;0.290562;-0.674220
29134;8.461821;-3.222464;-1.026327;-0.716512;-0.356485;-0.729996;-0.587402;-0.066406;0.558350;-0.034468;-0.682018;0.290561;-0.670252
29135;7.656604;-1.692329;-2.636645;-0.835340;-0.537254;-0.741710;-0.591553;-0.079346;0.570801;-0.042066;-0.686548;0.291180;-0.664904
29136;8.558729;-1.290399;-3.273152;-0.846571;-0.647588;-0.691047;-0.572266;-0.089111;0.571045;-0.049175;-0.691487;0.292159;-0.658841
29137;8.856721;-1.740146;-3.391868;-0.847405;-0.739944;-0.640234;-0.561279;-0.106934;0.585938;-0.055780;-0.696730;0.293439;-0.652188
29138;9.192227;-2.466508;-3.173316;-0.640559;-0.755448;-0.775881;-0.551025;-0.116455;0.588867;-0.061878;-0.702407;0.292783;-0.645812
29139;9.236081;-2.604410;-2.751648;-0.277956;-0.693495;-0.926105;-0.545898;-0.138916;0.593262;-0.066807;-0.708231;0.289234;-0.640539
29140;9.176913;-2.185237;-1.891871;-0.098118;-0.625085;-0.991138;-0.540771;-0.142822;0.590820;-0.071182;-0.713877;0.284275;-0.636004
29141;9.060591;-1.950260;-1.174109;-0.194434;-0.549252;-1.039002;-0.523926;-0.150635;0.598633;-0.076557;-0.719107;0.279470;-0.631602
29142;8.924834;-1.524477;-0.886924;-0.376940;-0.521790;-1.092509;-0.523682;-0.165527;0.598633;-0.083362;-0.724126;0.275256;-0.626839
29143;9.004362;-0.933977;-0.900578;-0.604378;-0.515329;-1.128547;-0.515625;-0.188477;0.604736;-0.091734;-0.728945;0.271973;-0.621494
29144;9.161707;-0.670444;-1.127225;-0.771776;-0.483177;-1.146774;-0.506104;-0.199951;0.605957;-0.101278;-0.733410;0.269379;-0.615864
29145;9.196889;-0.860405;-1.360874;-0.791516;-0.427008;-1.115337;-0.501221;-0.217285;0.611084;-0.110893;-0.737391;0.266988;-0.610471
29146;9.191793;-1.542395;-1.603995;-0.735736;-0.387456;-1.019795;-0.497070;-0.250244;0.608398;-0.119753;-0.740913;0.264826;-0.605454
29147;9.183539;-2.234942;-1.527625;-0.607399;-0.435651;-0.956087;-0.480225;-0.258301;0.608887;-0.127382;-0.744581;0.262429;-0.600420
29148;9.129187;-2.470670;-0.789628;-0.543327;-0.489335;-0.979995;-0.483887;-0.258545;0.615967;-0.134600;-0.748561;0.259593;-0.595105
29149;8.756402;-2.531346;0.339877;-0.707043;-0.481952;-1.075180;-0.468262;-0.275391;0.611572;-0.143312;-0.752436;0.256938;-0.589308
29150;7.669019;-2.983291;0.058743;-0.979903;-0.343889;-1.135621;-0.457520;-0.307373;0.618652;-0.154306;-0.755325;0.255042;-0.583633
29151;7.639654;-4.272811;-1.522902;-1.140572;-0.123172;-1.062090;-0.447998;-0.321777;0.612793;-0.166397;-0.756650;0.254064;-0.579003
29152;8.469529;-6.003787;-3.683309;-0.931468;0.070938;-0.744271;-0.445312;-0.342285;0.600098;-0.176022;-0.756551;0.253786;-0.576402
29153;8.585110;-7.110464;-4.349744;-0.399628;-0.032121;-0.518970;-0.444580;-0.347412;0.604736;-0.180981;-0.757200;0.252525;-0.574565
29154;8.717307;-6.424644;-3.908968;0.178291;-0.232919;-0.405795;-0.441650;-0.349854;0.604736;-0.181322;-0.759425;0.249524;-0.572830
29155;10.077135;-3.985048;-3.036144;0.300632;-0.350456;-0.219404;-0.438477;-0.354980;0.608154;-0.179748;-0.761993;0.247309;-0.570873
29156;11.605716;-2.870371;-2.954515;0.038414;-0.224713;-0.000044;-0.435303;-0.342041;0.607422;-0.179051;-0.763109;0.247551;-0.569494
29157;12.700903;-4.123210;-3.113200;-0.241538;0.015210;0.220957;-0.435547;-0.341064;0.615479;-0.179577;-0.762209;0.250171;-0.569389
29158;13.176186;-5.717476;-2.553145;-0.292800;0.454551;0.546872;-0.448242;-0.352539;0.606934;-0.179793;-0.758448;0.254447;-0.572441
29159;12.958994;-5.777666;0.503768;-0.178684;1.027212;1.062239;-0.469727;-0.348145;0.596924;-0.178026;-0.750956;0.260566;-0.580067
29160;9.329444;-3.506293;1.867605;-0.223314;1.648955;1.489231;-0.484375;-0.335938;0.577148;-0.175778;-0.739275;0.268590;-0.591975
29161;8.340615;-0.524970;1.084959;-0.434494;1.725148;1.843914;-0.514893;-0.319824;0.557617;-0.173183;-0.725816;0.279619;-0.604162
29162;11.561277;1.312581;-0.332978;-0.665247;1.696588;2.352188;-0.541504;-0.300293;0.546387;-0.169266;-0.710593;0.294769;-0.616050
29163;14.487254;0.476786;-2.382010;-0.923437;1.821243;2.818925;-0.569580;-0.296143;0.523682;-0.164666;-0.692702;0.313607;-0.628252
29164;15.080746;-0.245359;-2.623411;-1.132495;2.049394;2.816435;-0.610352;-0.275146;0.496338;-0.161741;-0.672720;0.332927;-0.640662
29165;15.226456;-1.811037;-1.740395;-1.064631;2.048844;2.442219;-0.631104;-0.251953;0.472412;-0.160293;-0.653290;0.349498;-0.652204
29166;13.525172;-3.359129;-0.496830;-0.816109;1.803109;2.181613;-0.663574;-0.237305;0.447510;-0.158079;-0.635833;0.363382;-0.662330
29167;12.745451;-2.552700;-0.405179;-0.507391;1.463990;2.161648;-0.679688;-0.213135;0.433838;-0.153230;-0.620364;0.375702;-0.671205
29168;12.424567;-1.909713;-1.120110;0.057515;1.220315;2.240357;-0.701660;-0.198730;0.413818;-0.144184;-0.606441;0.385400;-0.680373
29169;12.197893;-2.644628;-1.610609;0.700046;1.063457;2.106963;-0.708740;-0.172852;0.410156;-0.132083;-0.594343;0.390795;-0.690355
29170;11.791295;-2.508544;-1.546917;1.151976;0.850839;1.876228;-0.720215;-0.131592;0.400879;-0.118326;-0.584477;0.392522;-0.700222
29171;10.858195;-1.953086;-1.665481;1.321572;0.735594;1.762341;-0.724854;-0.108643;0.389893;-0.103985;-0.575601;0.392670;-0.709705
29172;9.646218;-1.568099;-1.198077;1.379866;0.638421;1.674252;-0.739990;-0.067383;0.385742;-0.089532;-0.567430;0.391988;-0.718577
29173;8.383714;-1.341938;-0.519742;1.409047;0.526287;1.542422;-0.752441;-0.047852;0.376465;-0.075332;-0.560192;0.390458;-0.726673
29174;7.282073;-1.180117;-0.435543;1.458565;0.338114;1.443547;-0.741699;-0.014160;0.378174;-0.060867;-0.554273;0.388156;-0.733765
29175;6.280847;-1.138831;-0.969761;1.502603;0.132009;1.291238;-0.754395;0.004883;0.374023;-0.046444;-0.549974;0.384875;-0.739759
29176;5.542222;-0.842097;-1.198197;1.633504;-0.035285;1.020333;-0.743652;0.027100;0.374756;-0.032543;-0.547480;0.379503;-0.745107
29177;5.212907;-0.244439;-1.211222;1.721319;-0.221845;0.656965;-0.746826;0.055420;0.376221;-0.019900;-0.547184;0.371885;-0.749597
29178;5.104992;0.639916;-0.803870;1.669062;-0.373687;0.256488;-0.747314;0.061768;0.371338;-0.009522;-0.548947;0.362708;-0.753000
29179;4.701507;1.162910;-0.751068;1.382675;-0.617823;-0.107454;-0.744873;0.072266;0.373291;-0.001998;-0.553223;0.353608;-0.754256
29180;4.555067;1.249834;-0.769180;0.972340;-0.785852;-0.395840;-0.735107;0.070557;0.388672;0.002317;-0.559323;0.345707;-0.753418
29181;4.360345;1.098731;-0.554211;0.432229;-0.868062;-0.558224;-0.741211;0.070068;0.399414;0.003332;-0.566363;0.340399;-0.750567
29182;4.048721;1.199364;-0.140132;-0.147553;-0.888521;-0.691019;-0.725830;0.051758;0.409912;0.000837;-0.573875;0.338053;-0.745914
29183;4.382468;0.349456;0.407396;-0.639089;-0.937628;-0.920187;-0.724609;0.048584;0.411377;-0.005295;-0.582275;0.337619;-0.739554
29184;6.327777;-1.590430;2.098401;-0.748762;-0.943317;-1.337508;-0.720215;0.019287;0.429443;-0.014515;-0.591771;0.335769;-0.732704
29185;10.006371;-4.671130;4.465504;-0.350583;-0.777426;-1.721834;-0.717285;-0.004639;0.450684;-0.024579;-0.601236;0.329485;-0.727565
29186;13.753633;-10.090626;4.251843;0.320855;-0.542395;-1.668196;-0.718018;-0.013184;0.452393;-0.031592;-0.609123;0.319266;-0.725287
29187;14.722360;-16.661017;2.009645;0.301812;-0.572306;-0.633332;-0.711182;-0.026367;0.452148;-0.032364;-0.614344;0.314381;-0.722979
29188;11.601456;-16.877297;2.949785;-0.079721;-0.628254;0.336186;-0.712158;-0.012451;0.463867;-0.029100;-0.617226;0.316778;-0.719609
29189;9.708371;-13.038741;3.418620;0.150981;-0.400583;0.429557;-0.712402;-0.003906;0.471680;-0.024690;-0.618526;0.318228;-0.718016
29190;8.404976;-8.224305;1.824461;0.667503;-0.189825;0.429063;-0.702148;-0.004883;0.471191;-0.018177;-0.618646;0.316544;-0.718851
29191;6.582964;-4.126552;-0.923182;0.552522;-0.519283;0.539887;-0.708496;0.005127;0.475830;-0.010724;-0.620394;0.316160;-0.717662
29192;7.897128;-0.548116;-2.875386;0.116466;-0.776789;0.285716;-0.706787;0.005127;0.478516;-0.006365;-0.624279;0.317078;-0.713931
29193;17.173190;4.345657;-1.301583;-0.678331;-1.264309;-0.784845;-0.683594;-0.005127;0.497803;-0.011222;-0.633779;0.317141;-0.705422
29194;23.760822;-0.339178;5.225929;-0.708703;-0.603805;-1.190383;-0.691895;-0.024658;0.507080;-0.020368;-0.640363;0.315100;-0.700166
29195;18.260683;-10.271226;3.222503;0.157874;0.623974;-0.346676;-0.696777;-0.016357;0.490234;-0.023188;-0.637659;0.312236;-0.703820
29196;2.870494;-6.001881;-3.110081;0.568856;-0.010370;0.430466;-0.702148;-0.012939;0.486572;-0.017613;-0.636708;0.311202;-0.705299
29197;1.980434;2.010291;-2.473811;0.972614;-0.660105;0.159141;-0.689453;-0.004395;0.507568;-0.009806;-0.640294;0.306444;-0.704286
29198;4.107197;3.983769;-2.832204;0.568209;-0.788275;-0.548460;-0.683105;0.000244;0.505615;-0.007982;-0.646350;0.300264;-0.701434
29199;8.354887;4.284095;-3.436250;-0.600332;-0.732228;-1.024768;-0.678955;-0.024170;0.525635;-0.015376;-0.653124;0.298302;-0.695851
29200;10.961594;1.100531;-3.353569;-1.188131;-0.511874;-0.934496;-0.673096;-0.036133;0.525146;-0.025994;-0.658221;0.300152;-0.689911
29201;12.060475;-2.852582;-4.173624;-0.969915;-0.385809;-0.575444;-0.669678;-0.059814;0.525146;-0.033664;-0.661655;0.302640;-0.685193
29202;9.100097;-3.175991;-3.688557;-0.654998;-0.358089;-0.329535;-0.674072;-0.064209;0.532959;-0.038263;-0.664351;0.304656;-0.681439
29203;9.086888;-3.956190;-3.085047;-0.049123;-0.532453;-0.492111;-0.669922;-0.071289;0.540771;-0.039988;-0.668615;0.302378;-0.678176
29204;10.521962;-2.214622;-0.717328;0.182160;-0.441860;-0.569895;-0.655762;-0.082520;0.536133;-0.041092;-0.672614;0.298322;-0.675948
29205;9.504643;-1.262367;-1.148730;-0.238582;-0.247538;-0.543660;-0.661133;-0.077881;0.545654;-0.044888;-0.675288;0.296703;-0.673750
29206;9.183955;-1.224945;-2.089614;-0.478579;-0.194265;-0.536676;-0.651367;-0.085938;0.541260;-0.050126;-0.677533;0.296437;-0.671239
29207;9.161296;-1.776107;-2.339512;-0.704126;-0.219904;-0.540481;-0.655029;-0.096680;0.539795;-0.056595;-0.679804;0.297404;-0.667993
29208;8.741112;-2.257158;-2.930354;-0.809909;-0.394072;-0.591028;-0.651123;-0.110840;0.541992;-0.063509;-0.683072;0.298735;-0.663427
29209;8.817542;-1.757263;-2.923112;-0.672422;-0.555073;-0.722997;-0.636475;-0.131836;0.551270;-0.069966;-0.687574;0.298616;-0.658161
29210;9.218845;-1.759427;-2.917705;-0.478992;-0.572021;-0.808703;-0.639648;-0.142090;0.567627;-0.075737;-0.692434;0.296929;-0.653171
29211;9.306527;-2.424040;-2.373288;-0.271603;-0.494570;-0.847222;-0.629639;-0.156494;0.557373;-0.080708;-0.697045;0.293819;-0.649065
29212;9.034763;-2.801946;-1.640811;-0.093942;-0.409291;-0.919362;-0.623535;-0.164795;0.566162;-0.085241;-0.701440;0.289252;-0.645794
29213;8.560043;-2.469180;-1.168757;-0.033419;-0.418008;-0.979349;-0.618652;-0.180420;0.567871;-0.089716;-0.706016;0.283995;-0.642526
29214;8.557320;-1.835898;-1.206596;-0.115227;-0.476668;-1.014245;-0.620605;-0.194336;0.568604;-0.094713;-0.710867;0.278991;-0.638640
29215;8.751578;-1.618776;-1.337194;-0.263313;-0.479308;-1.036497;-0.610596;-0.201904;0.580322;-0.100692;-0.715602;0.274620;-0.634318
29216;8.841425;-1.747856;-1.537883;-0.354763;-0.467971;-1.036439;-0.596924;-0.204834;0.584717;-0.107232;-0.720129;0.270695;-0.629793
29217;8.544421;-2.068076;-1.839778;-0.298717;-0.429106;-0.998154;-0.596680;-0.225830;0.592529;-0.113313;-0.724348;0.266646;-0.625604
29218;8.098177;-2.602620;-1.549635;-0.157744;-0.446249;-0.938229;-0.583984;-0.237549;0.590088;-0.118184;-0.728596;0.262219;-0.621628
29219;8.340991;-3.454197;-0.676117;-0.089062;-0.551983;-0.911064;-0.580322;-0.251465;0.590820;-0.122257;-0.733341;0.257689;-0.617139
29220;8.808564;-3.966646;0.136573;-0.134116;-0.562897;-0.896329;-0.563477;-0.260254;0.603516;-0.126496;-0.738006;0.253474;-0.612451
29221;9.229908;-4.197777;0.035701;-0.222837;-0.400303;-0.838517;-0.558594;-0.268555;0.603271;-0.131320;-0.741571;0.249882;-0.608594
29222;10.055417;-4.572942;-0.515000;-0.163077;-0.192421;-0.709760;-0.556641;-0.272949;0.600830;-0.135546;-0.743838;0.246547;-0.606256
29223;11.007472;-4.826960;-0.228590;-0.006455;0.007765;-0.538050;-0.554932;-0.282471;0.592529;-0.138341;-0.744895;0.243257;-0.605656
29224;11.207879;-4.934565;0.509477;0.118732;0.234649;-0.353009;-0.552734;-0.279297;0.594482;-0.139880;-0.744562;0.240224;-0.606921
29225;10.774920;-4.846643;1.306016;0.224583;0.520934;-0.158088;-0.556152;-0.283203;0.590820;-0.140345;-0.742499;0.237531;-0.610391
29226;10.658455;-5.635317;1.720572;0.325908;1.032427;0.112431;-0.576416;-0.281738;0.584473;-0.139811;-0.737376;0.235390;-0.617511
29227;9.419670;-6.836189;3.263001;0.543095;1.898801;0.424501;-0.593506;-0.266113;0.571289;-0.138009;-0.727300;0.233002;-0.630633
29228;7.524695;-7.455230;4.401960;0.880593;2.520103;0.838754;-0.624268;-0.253418;0.550781;-0.133131;-0.713241;0.230547;-0.648391
29229;7.166495;-5.863807;1.258256;1.110518;2.716783;1.421339;-0.646240;-0.222900;0.517822;-0.124030;-0.696796;0.229955;-0.667991
29230;10.705432;-1.884956;-2.014147;1.170035;2.984671;2.180063;-0.678955;-0.188232;0.487793;-0.110763;-0.676846;0.232964;-0.689448
29231;18.508241;-2.979695;-5.725850;1.050178;2.878725;2.821261;-0.709717;-0.146729;0.460449;-0.094159;-0.655389;0.240115;-0.709890
29232;18.089992;-2.204744;-10.306882;1.191664;3.028149;2.435589;-0.743896;-0.116699;0.412842;-0.079254;-0.633161;0.243930;-0.730290
29233;12.129804;-5.256414;-10.454238;0.950351;1.430078;2.436497;-0.756592;-0.068115;0.415527;-0.062301;-0.619938;0.250067;-0.741122
29234;12.377368;-8.642820;-8.664684;1.148732;0.541675;2.388226;-0.754883;-0.033203;0.401855;-0.042739;-0.612056;0.255070;-0.747328
29235;9.866469;-6.591942;-6.200711;1.216404;0.337388;2.578775;-0.756104;0.006348;0.406006;-0.021193;-0.604732;0.260581;-0.752295
29236;10.042160;-5.836549;-6.250608;1.311711;-0.413484;2.397430;-0.752197;0.050049;0.402588;0.001336;-0.602189;0.264585;-0.753234
29237;10.725572;-6.398372;-5.103094;2.524285;-0.713849;1.871739;-0.743408;0.086182;0.421143;0.027308;-0.602296;0.258185;-0.754874
29238;10.483137;-3.869428;-3.826570;3.408978;-0.795404;1.491354;-0.729980;0.130127;0.408691;0.055476;-0.603013;0.244083;-0.757444
29239;9.818686;-1.607944;-2.934934;3.594650;-0.830080;1.327916;-0.730225;0.164551;0.405762;0.083557;-0.603570;0.227722;-0.759516
29240;10.272772;-1.003605;-2.443186;3.620473;-0.928379;1.233879;-0.718018;0.200684;0.414551;0.111271;-0.604266;0.210410;-0.760401
29241;9.898927;-2.645809;-2.866211;4.133621;-1.185123;1.095608;-0.706543;0.256104;0.405518;0.141005;-0.605621;0.188653;-0.760099
29242;8.263154;-4.283270;-3.879546;4.784550;-1.446976;0.802827;-0.693604;0.294189;0.402832;0.172361;-0.607380;0.160691;-0.758656
29243;6.891999;-3.747141;-5.087033;5.258869;-1.815586;0.349729;-0.674561;0.336182;0.398926;0.203407;-0.610204;0.126600;-0.755149
29244;7.357262;-1.986015;-3.903048;5.533314;-1.779550;0.207637;-0.659912;0.364258;0.382812;0.234460;-0.611116;0.089841;-0.750662
29245;8.386935;-2.362756;-2.441674;5.209164;-2.000165;0.108926;-0.656982;0.391113;0.371094;0.262886;-0.612743;0.053966;-0.743320
29246;8.792829;-1.794428;-2.741836;4.822163;-2.091678;0.072902;-0.646729;0.418213;0.367188;0.288624;-0.614556;0.019987;-0.733906
29247;9.688366;-0.408569;-2.896700;4.400575;-1.913684;0.040032;-0.633057;0.461670;0.346680;0.311473;-0.615225;-0.011196;-0.724125
29248;8.572810;1.270420;-1.905872;3.748683;-1.815667;0.131948;-0.620850;0.475830;0.341553;0.331116;-0.616145;-0.037720;-0.713656
29249;7.693764;1.805341;-1.683064;3.003101;-1.997055;0.241859;-0.598389;0.493896;0.330078;0.347181;-0.619591;-0.059721;-0.701432
29250;7.882714;1.505556;-1.499717;2.306595;-2.043728;0.284841;-0.601562;0.513916;0.328369;0.359611;-0.624861;-0.077533;-0.688635
29251;8.597547;0.811652;-1.306593;1.810005;-2.019742;0.257700;-0.581787;0.515137;0.336426;0.369105;-0.631097;-0.092532;-0.675955
29252;9.181730;-0.799476;-0.765623;1.511000;-1.925058;0.184043;-0.565918;0.528320;0.337891;0.376514;-0.637371;-0.105911;-0.663911
29253;9.480564;-2.793239;-0.095234;1.406628;-1.857202;0.084697;-0.564453;0.538086;0.345215;0.382731;-0.643257;-0.118993;-0.652363
29254;9.403506;-4.513107;0.306283;1.558278;-1.821923;-0.078199;-0.550293;0.553711;0.359131;0.388762;-0.648057;-0.133617;-0.641119
29255;8.968078;-5.646394;0.016649;1.994519;-1.789936;-0.276497;-0.541016;0.555908;0.351562;0.395952;-0.650759;-0.151476;-0.629913
29256;8.186871;-6.255339;-0.719930;2.359655;-1.830944;-0.409418;-0.533936;0.566406;0.342529;0.404149;-0.651934;-0.172017;-0.618107
29257;7.622530;-5.981391;-1.303775;2.639146;-1.899829;-0.520330;-0.526123;0.578613;0.334229;0.412917;-0.651914;-0.194709;-0.605472
29258;7.593785;-5.283957;-1.560009;2.906823;-1.941716;-0.676597;-0.521484;0.587646;0.314697;0.421950;-0.650399;-0.219581;-0.592219
29259;8.213495;-4.706873;-1.679135;3.261653;-1.846989;-0.843326;-0.524170;0.593262;0.307373;0.431858;-0.646246;-0.246562;-0.578854
29260;8.757658;-3.786266;-1.820213;3.648411;-1.623197;-0.890366;-0.524902;0.605957;0.283691;0.443612;-0.638822;-0.274587;-0.565436
29261;9.214540;-2.815713;-1.357620;3.917572;-1.358707;-0.785365;-0.533203;0.614014;0.253174;0.457371;-0.628632;-0.302014;-0.551743
29262;9.342825;-2.161239;-0.539264;3.735173;-1.086175;-0.587903;-0.536621;0.624512;0.223145;0.471245;-0.617656;-0.326184;-0.538547
29263;9.396110;-1.602562;-0.016410;2.966240;-0.903764;-0.471087;-0.530762;0.637451;0.197510;0.481772;-0.608656;-0.345301;-0.527448
29264;11.478630;-1.528495;-0.098364;2.119920;-0.885551;-0.481168;-0.535400;0.628418;0.186523;0.487762;-0.602620;-0.360493;-0.518636
29265;16.634236;-1.288198;-3.081746;1.478671;-0.986599;-0.404374;-0.538086;0.628418;0.173096;0.490411;-0.599672;-0.372831;-0.510772
29266;15.042849;1.588686;-0.562862;1.544389;-0.848026;-0.024185;-0.534912;0.645752;0.172363;0.495329;-0.596912;-0.382907;-0.501724
29267;9.473282;1.135642;0.995419;1.012313;-0.768172;0.288903;-0.537598;0.637451;0.173828;0.499082;-0.596914;-0.388811;-0.493393
29268;6.119526;-0.076672;-1.724731;0.284650;-0.766173;0.049676;-0.525635;0.656738;0.176758;0.498196;-0.599107;-0.392874;-0.488386
29269;5.763140;-0.667709;-1.085870;0.355136;-0.643949;-0.586399;-0.522461;0.636719;0.172607;0.495448;-0.598396;-0.399874;-0.486369
29270;8.259212;-2.087141;-2.264763;0.695941;-0.762963;-0.852840;-0.535645;0.635498;0.171387;0.492876;-0.595814;-0.410041;-0.483678
29271;11.840729;-4.135620;-4.782367;1.160666;-0.902112;-0.713582;-0.531494;0.629395;0.165527;0.492623;-0.592268;-0.421901;-0.478059
29272;11.368090;-4.572366;-4.123265;1.872984;-0.666987;-0.439570;-0.542236;0.629395;0.149658;0.497689;-0.585687;-0.434186;-0.469850
29273;9.618156;-4.362782;-2.151334;2.654190;-0.692781;-0.349885;-0.545898;0.631592;0.127686;0.506622;-0.576050;-0.449027;-0.458122
29274;8.686861;-2.757298;-1.603565;3.013998;-0.875986;-0.463823;-0.553955;0.640625;0.106934;0.515853;-0.564815;-0.466283;-0.444365
29275;8.775387;-1.209054;-2.063895;2.918034;-1.038206;-0.728457;-0.560059;0.629395;0.085449;0.522663;-0.553170;-0.484798;-0.431041
29276;9.676979;-0.234767;-2.259705;2.509080;-1.063113;-0.968362;-0.562500;0.625488;0.072266;0.526294;-0.542069;-0.502750;-0.420022
29277;10.553720;0.488977;-2.206661;2.252869;-1.067224;-1.102690;-0.574463;0.611572;0.052490;0.527995;-0.531247;-0.520153;-0.410413
29278;10.500526;0.521401;-2.091841;2.048453;-1.017535;-1.154883;-0.579590;0.603760;0.039795;0.528574;-0.520664;-0.536622;-0.401940
29279;10.028820;0.237301;-1.600120;1.860178;-0.947407;-1.185198;-0.596680;0.600830;0.038818;0.528326;-0.510318;-0.552051;-0.394574
29280;9.891328;-0.189968;-1.549107;1.726490;-0.904262;-1.218376;-0.613281;0.580811;0.033936;0.527394;-0.500071;-0.566780;-0.388002
29281;9.758912;-0.561339;-1.594918;1.690743;-0.840054;-1.223602;-0.627441;0.570557;0.020752;0.526413;-0.489563;-0.580931;-0.381753
29282;9.569848;-0.869658;-1.537092;1.720993;-0.776034;-1.208219;-0.634766;0.558350;0.009521;0.525736;-0.478622;-0.594630;-0.375416
29283;9.434590;-1.085527;-1.597675;1.731991;-0.718532;-1.174943;-0.647949;0.542969;0.010254;0.525315;-0.467452;-0.607772;-0.368980
29284;9.085503;-1.073640;-1.801357;1.730970;-0.662561;-1.114924;-0.655518;0.525879;-0.004639;0.525183;-0.456263;-0.620230;-0.362384
29285;8.642098;-0.632661;-1.976695;1.718076;-0.650084;-1.083317;-0.674316;0.521240;-0.015381;0.524998;-0.445107;-0.632275;-0.355646
29286;8.852298;-0.069321;-2.033872;1.618248;-0.679934;-1.095118;-0.674561;0.507324;-0.016357;0.524093;-0.434278;-0.644004;-0.349267
29287;9.391630;0.155594;-1.985639;1.384914;-0.692006;-1.069988;-0.683350;0.490479;-0.017578;0.522211;-0.424521;-0.654840;-0.343892
29288;9.591503;0.205695;-1.669388;1.075689;-0.670493;-1.009339;-0.695801;0.486572;-0.025391;0.519417;-0.416285;-0.664342;-0.339945
29289;9.809788;-0.246953;-1.468576;0.741710;-0.678917;-0.933217;-0.702148;0.472168;-0.031006;0.515557;-0.409874;-0.672564;-0.337436
29290;9.488211;-0.768725;-1.420611;0.526340;-0.663653;-0.905457;-0.713379;0.464355;-0.018799;0.511066;-0.404449;-0.679939;-0.336029
29291;8.873212;-1.014348;-1.717587;0.465774;-0.605810;-0.961688;-0.715088;0.452637;-0.015381;0.506484;-0.398763;-0.687016;-0.335367
29292;8.622466;-1.055448;-1.999575;0.509503;-0.539006;-1.038924;-0.732666;0.433838;-0.018555;0.502165;-0.392220;-0.694113;-0.334965
29293;8.647095;-1.409319;-2.148079;0.571023;-0.500005;-1.062490;-0.742188;0.411621;-0.008545;0.498151;-0.385121;-0.701218;-0.334397
29294;8.473497;-2.012710;-1.940953;0.627255;-0.472371;-1.020943;-0.743164;0.414551;-0.002197;0.494536;-0.377914;-0.708149;-0.333376
29295;8.097340;-2.696959;-1.540346;0.648698;-0.522962;-0.943370;-0.740723;0.399902;-0.008545;0.490856;-0.371179;-0.715022;-0.331709
29296;8.609115;-3.501185;-1.391359;0.649035;-0.521951;-0.832950;-0.755371;0.389893;-0.005371;0.487443;-0.365054;-0.721476;-0.329556
29297;9.703239;-3.872512;-2.007815;0.658692;-0.374606;-0.678717;-0.754639;0.382324;0.001465;0.485327;-0.359382;-0.726830;-0.327139
29298;10.687405;-3.880749;-2.445140;0.619742;-0.199744;-0.533807;-0.756104;0.374512;-0.008789;0.484521;-0.354252;-0.730892;-0.324872
29299;11.517641;-4.072340;-2.627025;0.471396;-0.032425;-0.434520;-0.764648;0.368408;-0.016357;0.484558;-0.349852;-0.733553;-0.323584
29300;13.552767;-5.420555;-3.345254;0.279814;0.173403;-0.340846;-0.766602;0.364258;-0.016602;0.485539;-0.346232;-0.734579;-0.323679
29301;14.305539;-6.286768;-4.838422;0.313812;0.597062;-0.156645;-0.763672;0.364014;-0.026611;0.489692;-0.342461;-0.733435;-0.324029
29302;12.496714;-4.807229;-2.925994;0.740559;0.701667;0.116562;-0.760742;0.370605;-0.032959;0.496422;-0.338322;-0.732195;-0.320926
29303;12.331546;-5.376152;-0.098449;0.857366;0.709909;0.568574;-0.757080;0.374268;-0.051514;0.504688;-0.336425;-0.729890;-0.315226
29304;10.777064;-5.430453;1.400476;0.706658;1.326662;1.028254;-0.748535;0.385010;-0.073242;0.517418;-0.336261;-0.723182;-0.310186
29305;8.343677;-4.634789;0.781808;0.651020;1.745615;1.308760;-0.737061;0.395508;-0.103027;0.533091;-0.336845;-0.713518;-0.305354
29306;8.204608;-3.493733;-0.084455;0.635780;1.665811;1.613356;-0.721436;0.422363;-0.123047;0.548826;-0.339363;-0.703043;-0.298919
29307;11.034858;-2.036672;-1.448560;0.680448;1.456339;2.121101;-0.707031;0.440430;-0.145752;0.564471;-0.345079;-0.691865;-0.289165
29308;13.808874;-0.858675;-2.667124;0.824446;1.369178;2.572619;-0.679443;0.481689;-0.166016;0.580780;-0.352699;-0.679774;-0.276052
29309;14.188194;-0.410451;-3.737281;1.221506;1.192101;2.564651;-0.653564;0.491211;-0.194336;0.596874;-0.358610;-0.668981;-0.260009
29310;12.870545;-2.397098;-4.874960;1.742478;0.946357;2.341261;-0.629395;0.514648;-0.213379;0.612282;-0.360874;-0.660807;-0.241277
29311;11.870528;-3.511970;-3.958598;2.017342;0.755434;2.308232;-0.600342;0.532715;-0.240967;0.626956;-0.361753;-0.653802;-0.220461
29312;12.069165;-3.110095;-2.445472;2.007302;0.498610;2.496941;-0.572510;0.552246;-0.272461;0.640133;-0.363941;-0.647046;-0.197759
29313;12.954296;-2.798881;-2.422086;2.217083;0.416506;2.612419;-0.541016;0.569092;-0.277588;0.653257;-0.365460;-0.640163;-0.172873
29314;12.820241;-2.089423;-2.399099;2.246588;0.447926;2.544295;-0.518555;0.573730;-0.311035;0.665876;-0.366263;-0.632848;-0.148203
29315;12.274769;-1.225622;-1.935275;1.817043;0.350589;2.356627;-0.494385;0.587891;-0.337158;0.676003;-0.368165;-0.625692;-0.126425
29316;11.721232;-0.717461;-2.007869;1.748915;0.134836;2.113284;-0.468994;0.581543;-0.348877;0.684186;-0.369185;-0.620028;-0.105625
29317;10.879465;-0.725194;-1.149985;1.997208;0.090976;1.932227;-0.442871;0.585205;-0.377930;0.692347;-0.367633;-0.615124;-0.084399
29318;9.497184;-0.891687;-0.538302;1.999931;0.158291;1.826003;-0.425049;0.588623;-0.395508;0.700518;-0.365258;-0.609737;-0.063879
29319;7.796722;-0.651949;-0.712827;1.832557;0.156736;1.738063;-0.411377;0.594238;-0.409668;0.707730;-0.363292;-0.604265;-0.044731
29320;6.397423;-0.330279;-0.982622;1.767025;0.084150;1.616433;-0.383057;0.582520;-0.432861;0.713955;-0.361037;-0.599350;-0.026452
29321;5.495339;0.462474;-0.980203;1.724895;0.034581;1.417184;-0.374268;0.580811;-0.448975;0.719600;-0.357828;-0.595019;-0.009339
29322;5.004155;1.074783;-0.485504;1.620043;-0.024295;1.141881;-0.365479;0.576904;-0.467041;0.724336;-0.353777;-0.591732;0.005734
29323;4.801373;1.040059;-0.049547;1.384756;-0.184557;0.786433;-0.352051;0.575195;-0.471680;0.727434;-0.349296;-0.590346;0.017959
29324;4.702974;1.216062;0.344482;1.046674;-0.243351;0.425891;-0.349854;0.561035;-0.487061;0.729194;-0.345135;-0.590303;0.026474
29325;4.483705;0.914953;0.373528;0.439531;-0.176271;0.169485;-0.353027;0.558350;-0.489014;0.729593;-0.343287;-0.590704;0.030277
29326;4.120421;-0.603173;0.847451;-0.137201;-0.129451;-0.045526;-0.358887;0.557129;-0.477051;0.728593;-0.343903;-0.591605;0.029770
29327;3.995669;-3.569030;2.186850;-0.292592;-0.140332;-0.274659;-0.353271;0.550781;-0.482422;0.727109;-0.344348;-0.593297;0.027102
29328;5.002751;-7.168890;2.933737;-0.096741;-0.156661;-0.435409;-0.357422;0.563477;-0.485107;0.726186;-0.342783;-0.595444;0.024515
29329;6.721407;-9.999401;2.616427;0.393447;-0.339412;-0.476531;-0.355469;0.557129;-0.479492;0.725734;-0.338043;-0.598691;0.024623
29330;8.286290;-9.693927;2.438804;0.727646;-0.697887;-0.371053;-0.374756;0.544922;-0.490723;0.724369;-0.331718;-0.603711;0.028046
29331;9.077467;-9.227508;3.170555;0.530856;-1.008414;-0.183999;-0.380371;0.535645;-0.473633;0.720793;-0.327385;-0.610101;0.032473
29332;9.510716;-9.314433;3.328285;0.306350;-1.171936;-0.017005;-0.389648;0.530029;-0.472900;0.715651;-0.325192;-0.617017;0.037200
29333;10.201576;-8.517533;3.641063;0.049133;-1.068252;0.081015;-0.403076;0.531494;-0.469482;0.710260;-0.325030;-0.623067;0.040915
29334;12.053599;-6.907190;2.152105;-0.365062;-0.932218;-0.023014;-0.404053;0.534912;-0.455811;0.704438;-0.326800;-0.628688;0.041491
29335;18.373957;-7.165880;0.336791;-0.811765;-1.129871;-0.403942;-0.411865;0.534668;-0.437988;0.696423;-0.329100;-0.636587;0.038024
29336;20.469336;-9.350367;-5.585487;-0.361999;-0.811320;-0.213278;-0.421875;0.548340;-0.437256;0.691204;-0.329864;-0.641908;0.037165
29337;14.027298;-5.845235;-0.202943;1.040613;0.039284;0.244930;-0.420166;0.531006;-0.444580;0.694200;-0.325242;-0.640593;0.044106
29338;5.530089;2.802856;2.791880;1.097574;-0.068494;0.116734;-0.417480;0.525391;-0.452393;0.696766;-0.319530;-0.640178;0.050892
29339;1.279988;6.081054;2.576907;0.208975;-0.292048;-0.678781;-0.425293;0.508545;-0.451172;0.696072;-0.314624;-0.643509;0.048895
29340;2.557370;4.889670;-1.305554;-1.457422;-0.839160;-1.343438;-0.434326;0.508789;-0.430908;0.688228;-0.315536;-0.652317;0.035520
29341;9.791446;1.645753;-5.550314;-2.119705;-1.029048;-1.653657;-0.458496;0.531982;-0.407227;0.677396;-0.318368;-0.662933;0.017240
29342;18.491653;-2.577751;-5.797852;-1.604299;-0.972013;-1.418532;-0.484375;0.519043;-0.376465;0.667886;-0.319449;-0.672214;0.002966
29343;11.931560;-5.428593;-2.877919;-0.911934;-0.511057;-0.822813;-0.489258;0.523193;-0.363037;0.662614;-0.319942;-0.677164;-0.005351
29344;6.848372;-3.634520;-1.872934;-0.512447;-0.409810;-0.816241;-0.498291;0.509766;-0.359619;0.658914;-0.318234;-0.681486;-0.011646
29345;6.487035;-1.965549;-1.265379;-0.338854;-0.538069;-1.011848;-0.519043;0.514893;-0.354736;0.654870;-0.314446;-0.686991;-0.017686
29346;8.102397;-2.321377;-1.503338;-0.574227;-0.674071;-1.117417;-0.522705;0.503418;-0.338623;0.649336;-0.311324;-0.693398;-0.025293
29347;8.739940;-2.841111;-2.487106;-0.876500;-0.633306;-1.151484;-0.539307;0.494385;-0.328613;0.643145;-0.309584;-0.699501;-0.034935
29348;8.916710;-3.228029;-2.842229;-0.624352;-0.734771;-1.149385;-0.546387;0.494141;-0.313965;0.636909;-0.306483;-0.706103;-0.042828
29349;8.762317;-3.095038;-2.320891;-0.409267;-0.822014;-1.143048;-0.569336;0.479492;-0.308350;0.630613;-0.302268;-0.713121;-0.049192
29350;8.682807;-2.284544;-2.210061;-0.234967;-0.914752;-1.212101;-0.575684;0.471436;-0.297363;0.624079;-0.296713;-0.720764;-0.054642
29351;8.920815;-1.775912;-1.980064;-0.133107;-0.895044;-1.308131;-0.588379;0.461182;-0.288086;0.617768;-0.289997;-0.728466;-0.060021
29352;8.996362;-1.834624;-1.991698;-0.064185;-0.772599;-1.366963;-0.605713;0.444092;-0.278564;0.612231;-0.282459;-0.735589;-0.065572
29353;9.138003;-2.268286;-1.591341;-0.063098;-0.658760;-1.393782;-0.616455;0.428223;-0.269531;0.607277;-0.274642;-0.742073;-0.071514
29354;9.009704;-2.316773;-1.181708;-0.162244;-0.573168;-1.402603;-0.625732;0.415039;-0.265869;0.602524;-0.267178;-0.747964;-0.078299
29355;8.798072;-1.814303;-0.859220;-0.374542;-0.558242;-1.372157;-0.642822;0.396240;-0.255859;0.597316;-0.260919;-0.753453;-0.086277
29356;8.581780;-1.147149;-0.857966;-0.559069;-0.569169;-1.294632;-0.654297;0.394531;-0.235596;0.591599;-0.256032;-0.758574;-0.094992
29357;8.798740;-1.015887;-0.998286;-0.638763;-0.575121;-1.206358;-0.656982;0.385254;-0.226074;0.585653;-0.252067;-0.763353;-0.103751
29358;9.006047;-1.360613;-1.275987;-0.619655;-0.490182;-1.128839;-0.670898;0.371582;-0.225098;0.580275;-0.248394;-0.767463;-0.112175
29359;9.432567;-2.020838;-1.576250;-0.487948;-0.370797;-1.037062;-0.675293;0.364502;-0.222900;0.575953;-0.244530;-0.770838;-0.119549
29360;9.411522;-2.514808;-2.036188;-0.343864;-0.386671;-0.916375;-0.683350;0.352783;-0.209473;0.571894;-0.240747;-0.774119;-0.125375
29361;8.425094;-2.559605;-1.671195;-0.212330;-0.528537;-0.880944;-0.700195;0.340576;-0.194092;0.567176;-0.236698;-0.778084;-0.129889
29362;7.882986;-3.509826;-0.602082;-0.284049;-0.622036;-0.932359;-0.704834;0.341064;-0.193115;0.561608;-0.232736;-0.782451;-0.134913
29363;7.831622;-4.808186;-0.090214;-0.572682;-0.509715;-0.950735;-0.706055;0.326172;-0.183594;0.556144;-0.229861;-0.785922;-0.142105
29364;7.197103;-4.473065;-0.625665;-0.776762;-0.304787;-0.835847;-0.706299;0.315674;-0.174805;0.551714;-0.228419;-0.787905;-0.150475
29365;9.645549;-5.213598;-3.301485;-0.766427;-0.187831;-0.521784;-0.706543;0.313965;-0.164795;0.548423;-0.228828;-0.788702;-0.157537
29366;10.622935;-5.395281;-3.772141;-0.507576;-0.121286;-0.255315;-0.710205;0.305908;-0.169434;0.546391;-0.229711;-0.788995;-0.161791
29367;10.867619;-5.704108;-3.167614;-0.239402;-0.100963;-0.159294;-0.709717;0.316162;-0.169678;0.545130;-0.229972;-0.789363;-0.163870
29368;12.339137;-5.972112;-2.056867;-0.249604;0.038538;0.014379;-0.705322;0.307129;-0.156738;0.545003;-0.231233;-0.788745;-0.165485
29369;13.382362;-6.672587;-2.509410;-0.636682;0.358787;0.295420;-0.702881;0.315186;-0.166992;0.546611;-0.235651;-0.785578;-0.168971
29370;13.149693;-8.592794;-2.789614;-0.636070;0.713731;0.621337;-0.693604;0.327148;-0.176758;0.550970;-0.241688;-0.780101;-0.171644
29371;11.844614;-10.158292;-1.645581;-0.150755;1.148831;1.024738;-0.683350;0.338867;-0.186279;0.559643;-0.247466;-0.772405;-0.170149
29372;8.368736;-7.063437;1.183233;0.498118;1.504120;1.375596;-0.666504;0.351562;-0.200439;0.572307;-0.251916;-0.763063;-0.163517
29373;9.126385;-1.578263;2.939185;0.683414;1.441923;1.841125;-0.656250;0.359131;-0.218506;0.585394;-0.258438;-0.753011;-0.153289
29374;13.093208;1.781365;1.813045;0.208748;1.405890;2.518847;-0.629395;0.388184;-0.236572;0.597807;-0.271446;-0.740685;-0.142581
29375;17.384752;2.591866;-3.069023;-0.151167;1.519789;3.014685;-0.598389;0.414795;-0.255371;0.610284;-0.288983;-0.725723;-0.131791
29376;16.092492;1.715109;-6.505159;-0.017474;1.991771;2.784786;-0.576416;0.447754;-0.267822;0.625186;-0.303697;-0.708470;-0.122397
29377;13.954335;-1.880198;-4.336012;-0.091409;1.819528;2.264188;-0.542969;0.468750;-0.280273;0.637905;-0.315684;-0.692857;-0.115632
29378;13.832246;-4.360130;-1.183988;-0.321186;1.551001;2.151660;-0.510986;0.487305;-0.288818;0.648007;-0.328328;-0.678368;-0.110021
29379;13.309691;-4.230044;-0.646973;-0.058379;1.216785;2.324587;-0.499756;0.506592;-0.302490;0.656777;-0.340677;-0.665116;-0.101019
29380;12.683822;-3.288870;-1.383964;0.657125;0.943638;2.426039;-0.471680;0.528320;-0.325195;0.665823;-0.349732;-0.653342;-0.086670
29381;11.788789;-2.664535;-1.515693;1.353603;0.743371;2.307862;-0.440674;0.535156;-0.340576;0.675374;-0.354237;-0.643184;-0.068557
29382;11.210185;-1.376587;-1.523388;1.730199;0.537557;2.022182;-0.419434;0.530273;-0.362549;0.684413;-0.355019;-0.634902;-0.049392
29383;10.621501;-0.390502;-1.734702;1.815367;0.467643;1.771153;-0.397461;0.534180;-0.380127;0.692895;-0.353836;-0.627485;-0.030984
29384;9.252405;0.295308;-1.196133;1.706057;0.524110;1.625339;-0.378906;0.527344;-0.391846;0.701009;-0.352347;-0.619869;-0.014150
29385;7.327956;0.067530;-0.278536;1.523236;0.544911;1.516243;-0.370117;0.531006;-0.408447;0.708417;-0.351223;-0.612198;0.001038
29386;6.025054;-0.852485;0.002104;1.476721;0.444593;1.360320;-0.355469;0.529541;-0.433350;0.714952;-0.349460;-0.605380;0.015355
29387;5.299437;-0.471440;-0.235861;1.444019;0.360096;1.140410;-0.346680;0.520508;-0.434570;0.720801;-0.346673;-0.599545;0.028433
29388;4.365998;0.307844;-0.619373;1.478579;0.139101;0.892556;-0.337891;0.512207;-0.457031;0.725541;-0.342305;-0.595610;0.040822
29389;4.019534;0.904908;-0.552536;1.518016;-0.011924;0.608958;-0.326416;0.502441;-0.468506;0.729597;-0.336168;-0.593266;0.052109
29390;4.167260;1.010752;-0.178794;1.393704;-0.173300;0.321295;-0.322266;0.495850;-0.472168;0.732512;-0.329235;-0.592665;0.061469
29391;4.537996;1.024184;-0.046527;0.931948;-0.382350;0.074586;-0.330811;0.491699;-0.478027;0.733176;-0.323756;-0.594192;0.067602
29392;4.627255;0.833994;-0.072104;0.302322;-0.401808;-0.076068;-0.340576;0.478271;-0.490234;0.732100;-0.321350;-0.596574;0.069740
29393;4.404396;-0.190630;0.359806;-0.228358;-0.262638;-0.161676;-0.332520;0.487305;-0.474854;0.730334;-0.321832;-0.598637;0.068337
29394;4.703080;-2.412315;1.698913;-0.514249;-0.218294;-0.294796;-0.344971;0.491211;-0.473633;0.728086;-0.323409;-0.600939;0.064575
29395;6.131212;-5.751841;2.715481;-0.521692;-0.379897;-0.490469;-0.348877;0.488037;-0.465088;0.725088;-0.323953;-0.604731;0.060020
29396;7.656498;-8.732938;2.155648;-0.292392;-0.557937;-0.581761;-0.357422;0.481689;-0.462891;0.721826;-0.322548;-0.609699;0.056548
29397;9.642792;-10.729366;2.826403;0.070648;-0.651119;-0.527633;-0.370117;0.486816;-0.458984;0.719006;-0.319177;-0.614880;0.055499
29398;10.891336;-12.283261;2.872576;-0.116003;-0.780845;-0.476033;-0.386963;0.482178;-0.456055;0.714964;-0.317113;-0.620752;0.054151
29399;11.094152;-11.949121;2.909126;-0.149469;-0.897823;-0.293858;-0.388672;0.474609;-0.441895;0.710105;-0.316121;-0.626817;0.054028
29400;10.869341;-9.918474;3.001487;0.093073;-0.929763;0.010854;-0.393799;0.473877;-0.437500;0.705540;-0.315252;-0.632118;0.057063
29401;8.955363;-7.158441;0.241557;0.114593;-0.917284;0.138212;-0.406006;0.476807;-0.441650;0.700998;-0.314913;-0.636961;0.060928
29402;5.786769;-3.612715;-2.819736;-0.320202;-0.955823;-0.064322;-0.405518;0.479492;-0.429199;0.695168;-0.315999;-0.642740;0.061402
29403;10.159908;2.219881;-4.332403;-0.905632;-1.256771;-0.879893;-0.427734;0.473633;-0.402832;0.686500;-0.315910;-0.652622;0.054802
29404;22.817544;1.812665;4.063748;-0.622062;-1.299091;-2.244053;-0.457031;0.465332;-0.387451;0.678727;-0.306649;-0.665981;0.042019
29405;30.600467;-12.293831;7.322866;1.117981;0.501059;-1.819655;-0.466064;0.439453;-0.396240;0.684970;-0.290404;-0.667187;0.036646
29406;8.971777;-12.084211;-2.719147;0.991035;0.274510;0.244836;-0.465576;0.429688;-0.421875;0.688887;-0.286230;-0.664582;0.042879
29407;0.299319;4.585777;-2.106144;0.542620;-0.531423;0.355146;-0.463135;0.431885;-0.418945;0.687183;-0.284936;-0.666461;0.049194
29408;-0.228842;8.681739;-1.985783;-0.061185;-0.793098;-0.605695;-0.485352;0.437744;-0.404541;0.682946;-0.281637;-0.672333;0.047264
29409;2.501167;7.218362;-2.398005;-1.807851;-1.018185;-1.151579;-0.494385;0.435059;-0.388672;0.673406;-0.285068;-0.681304;0.032947
29410;9.282661;3.056924;-4.962662;-3.030311;-0.954196;-1.271463;-0.504883;0.441406;-0.347900;0.660953;-0.294528;-0.690128;0.010837
29411;18.573505;-3.348573;-6.453909;-3.023702;-0.574115;-0.843539;-0.511475;0.458496;-0.323975;0.650156;-0.306228;-0.695288;-0.009827
29412;10.382686;-7.419581;-3.895871;-2.030908;-0.041448;-0.596856;-0.518555;0.458984;-0.312744;0.644661;-0.313784;-0.696663;-0.024760
29413;6.744717;-6.078178;-0.487609;-0.783370;-0.461752;-0.832734;-0.526611;0.455566;-0.294922;0.639801;-0.313294;-0.701026;-0.032606
29414;8.078850;-3.728862;-0.929976;-0.564636;-0.516415;-0.842455;-0.537842;0.444580;-0.287598;0.635129;-0.311569;-0.705697;-0.039075
29415;7.932202;-1.990427;-2.038155;-0.644444;-0.510427;-0.794277;-0.543945;0.441162;-0.271729;0.630244;-0.310523;-0.710122;-0.045769
29416;8.111092;-1.145881;-3.186664;-0.904728;-0.512179;-0.885215;-0.555420;0.439941;-0.268066;0.624570;-0.310274;-0.714616;-0.054472
29417;9.034403;-1.295877;-3.868420;-0.689473;-0.529850;-1.043049;-0.563721;0.432129;-0.253174;0.619193;-0.307936;-0.719617;-0.062664
29418;9.177365;-1.885092;-3.228885;-0.339183;-0.632224;-1.079370;-0.580322;0.432129;-0.249756;0.614004;-0.303590;-0.725339;-0.068674
29419;8.852002;-1.906051;-2.478320;-0.075980;-0.642080;-1.121680;-0.590576;0.415527;-0.234131;0.609324;-0.297614;-0.731287;-0.073279
29420;9.163207;-1.393769;-2.070691;0.089883;-0.561393;-1.176691;-0.597656;0.398193;-0.233887;0.605442;-0.290378;-0.736979;-0.077346
29421;9.183383;-1.159602;-1.851859;0.107774;-0.508138;-1.209748;-0.610840;0.392578;-0.231445;0.601837;-0.282781;-0.742408;-0.081593
29422;8.932501;-0.868995;-1.447947;-0.164073;-0.461544;-1.216996;-0.616455;0.383301;-0.221436;0.597803;-0.276439;-0.747348;-0.087661
29423;8.852488;-0.295021;-1.464268;-0.397503;-0.479450;-1.186008;-0.638184;0.365723;-0.211426;0.593070;-0.271435;-0.752044;-0.094980
29424;9.108601;0.207597;-1.667047;-0.580874;-0.468925;-1.125993;-0.649170;0.356689;-0.205566;0.587961;-0.267672;-0.756313;-0.103167
29425;9.036194;-0.284025;-1.902761;-0.780383;-0.476052;-1.099413;-0.648193;0.346436;-0.198242;0.582307;-0.265027;-0.760285;-0.112455
29426;9.213335;-1.245025;-1.800987;-1.021228;-0.423104;-1.051597;-0.654053;0.345215;-0.185791;0.576411;-0.263768;-0.763553;-0.123139
29427;9.338525;-2.145241;-1.549263;-1.137460;-0.230216;-0.958121;-0.670166;0.333252;-0.179688;0.571492;-0.263425;-0.765447;-0.134518
29428;9.282397;-2.786283;-1.222686;-1.082173;-0.163335;-0.862078;-0.666992;0.323242;-0.165527;0.567145;-0.263320;-0.766761;-0.145212
29429;9.201058;-3.736376;-1.162168;-0.944184;-0.228050;-0.791558;-0.670654;0.325439;-0.160156;0.562705;-0.263065;-0.768298;-0.154529
29430;8.267558;-4.821820;-1.042237;-0.829159;-0.316239;-0.778585;-0.680664;0.314697;-0.143555;0.557913;-0.262444;-0.770286;-0.162835
29431;7.092761;-5.630139;-0.482345;-0.675228;-0.237864;-0.825187;-0.689697;0.302734;-0.140381;0.553850;-0.260681;-0.772152;-0.170519
29432;8.740723;-6.419454;-1.127268;-0.570732;-0.071616;-0.681826;-0.690918;0.303711;-0.141113;0.551254;-0.259109;-0.773032;-0.177212
29433;9.814398;-5.690028;-2.025930;-0.343984;0.007001;-0.364027;-0.694580;0.300049;-0.141357;0.550106;-0.258422;-0.773169;-0.181139
29434;10.180451;-5.732043;-3.426215;-0.148304;0.055384;-0.176572;-0.683838;0.294922;-0.146973;0.549972;-0.257972;-0.772967;-0.183040
29435;10.464652;-6.326047;-2.915416;-0.008452;0.117013;-0.086968;-0.688477;0.292480;-0.143311;0.550672;-0.257367;-0.772501;-0.183752
29436;11.270419;-5.688804;-2.443815;-0.027367;0.249044;0.076442;-0.688721;0.290039;-0.149414;0.552433;-0.257698;-0.771047;-0.184110
29437;12.325111;-5.707843;-2.498372;-0.080544;0.426034;0.298876;-0.684570;0.292236;-0.156006;0.555554;-0.259432;-0.768207;-0.184154
29438;12.498953;-6.638819;-1.821719;0.109490;0.633009;0.597656;-0.693359;0.299561;-0.158203;0.560852;-0.261873;-0.764023;-0.182032
29439;11.233001;-6.726262;-1.159090;0.541970;1.006443;1.029776;-0.674316;0.316406;-0.180420;0.570069;-0.264450;-0.757720;-0.175922
29440;8.329142;-3.969885;0.384138;0.760907;1.303806;1.358101;-0.665527;0.317383;-0.188965;0.582001;-0.267565;-0.749423;-0.167478
29441;9.753693;-0.866072;0.512197;0.500168;1.314577;1.814509;-0.650391;0.339844;-0.207520;0.593865;-0.274690;-0.739442;-0.158413
29442;13.826191;0.149518;-0.956523;0.045689;1.343730;2.403127;-0.629883;0.364746;-0.221191;0.605379;-0.287527;-0.727031;-0.149230
29443;16.448627;0.277716;-3.588848;-0.302440;1.637382;2.760671;-0.613037;0.392578;-0.232666;0.617900;-0.303735;-0.711389;-0.140963
29444;15.498705;0.720030;-4.052764;-0.299505;1.809297;2.628277;-0.585449;0.419434;-0.255615;0.630839;-0.318719;-0.694685;-0.133693
29445;14.418075;-0.900443;-2.638024;-0.279927;1.619467;2.303567;-0.551270;0.443115;-0.262695;0.641960;-0.331724;-0.679418;-0.127428
29446;12.974939;-3.018273;-0.718958;-0.164141;1.435260;2.210305;-0.539307;0.458008;-0.280518;0.651918;-0.343601;-0.665161;-0.120430
29447;12.601664;-2.092571;-0.249255;0.022926;1.207432;2.251732;-0.515381;0.485107;-0.284180;0.660879;-0.354753;-0.651894;-0.111459
29448;12.164355;-1.106288;-0.945851;0.256595;1.106141;2.310957;-0.489014;0.505615;-0.297363;0.669730;-0.364867;-0.638925;-0.100541
29449;11.140557;-1.745567;-1.538920;0.732946;0.865437;2.142424;-0.466064;0.510010;-0.322510;0.678311;-0.371462;-0.627931;-0.087255
29450;10.729461;-2.020073;-1.701082;1.311781;0.521259;1.876592;-0.456055;0.521973;-0.334473;0.686416;-0.373489;-0.619878;-0.071345
29451;9.995132;-1.866352;-1.873789;1.637305;0.457631;1.721236;-0.439941;0.525635;-0.346680;0.694839;-0.372735;-0.612622;-0.054419
29452;9.025403;-1.530864;-1.494475;1.696718;0.442897;1.646265;-0.414551;0.531006;-0.365723;0.703053;-0.371103;-0.605466;-0.037560
29453;7.853275;-1.660802;-0.640683;1.768156;0.415163;1.546590;-0.406738;0.525391;-0.387207;0.711033;-0.368404;-0.598563;-0.020829
29454;6.844748;-1.496334;-0.550547;1.708505;0.317105;1.454776;-0.388672;0.523926;-0.410889;0.718055;-0.365470;-0.592289;-0.004634
29455;5.919301;-1.075318;-0.846285;1.648371;0.183813;1.303261;-0.371338;0.519043;-0.417236;0.723990;-0.362027;-0.587077;0.010762
29456;5.297260;-0.359175;-1.207558;1.711624;0.063569;1.060343;-0.373291;0.509766;-0.431396;0.729333;-0.356890;-0.583146;0.025356
29457;4.977262;0.530408;-1.199977;1.785191;-0.066913;0.752876;-0.367188;0.504639;-0.455566;0.734126;-0.349682;-0.580754;0.038816
29458;5.111627;1.290622;-0.663696;1.594377;-0.251360;0.412020;-0.365967;0.494629;-0.459717;0.737413;-0.341847;-0.580417;0.049789
29459;5.016451;1.265122;-1.070533;1.003749;-0.613279;0.104419;-0.370850;0.485840;-0.470703;0.737287;-0.335950;-0.583346;0.057032
29460;5.153001;1.069429;-1.361765;0.378919;-0.722981;-0.163395;-0.381104;0.477539;-0.462158;0.734952;-0.332511;-0.587958;0.059889
29461;4.964873;1.474869;-0.586710;-0.164042;-0.742614;-0.354138;-0.390869;0.479004;-0.465088;0.731075;-0.331435;-0.593467;0.058963
29462;4.818017;0.768583;0.267580;-0.765476;-0.942677;-0.568059;-0.401123;0.486328;-0.442139;0.724589;-0.332837;-0.601033;0.054301
29463;6.664402;-2.499302;1.677752;-0.900220;-0.955248;-1.074422;-0.425049;0.486816;-0.438721;0.717779;-0.332458;-0.610045;0.045928
29464;8.088982;-6.299297;3.580617;-0.351800;-0.776268;-1.433999;-0.435303;0.472900;-0.423828;0.713397;-0.326975;-0.618653;0.037685
29465;7.539248;-9.513319;3.692374;0.570683;-0.440281;-1.492736;-0.453369;0.461914;-0.435547;0.713145;-0.315751;-0.625013;0.032924
29466;8.337556;-11.098136;4.697934;1.123413;-0.507184;-1.173094;-0.476318;0.439453;-0.424072;0.713775;-0.302831;-0.630652;0.033114
29467;11.118689;-11.060492;3.688127;0.278085;-1.033526;-0.470128;-0.477783;0.434082;-0.422852;0.709212;-0.298445;-0.637783;0.034371
29468;12.164913;-9.964663;2.331420;-0.612863;-1.189937;0.113192;-0.488525;0.438965;-0.409180;0.701361;-0.302351;-0.644570;0.034731
29469;11.313890;-8.916587;2.120811;-0.601639;-0.952238;0.368745;-0.484619;0.451416;-0.401367;0.694666;-0.307601;-0.649247;0.036049
29470;10.002531;-6.835991;0.814758;-0.664828;-0.674819;0.323366;-0.493408;0.459229;-0.394043;0.689268;-0.313030;-0.652398;0.036052
29471;14.745664;-3.277651;-2.118330;-0.879602;-0.826060;-0.313007;-0.500732;0.468018;-0.365234;0.682619;-0.316161;-0.658083;0.031628
29472;22.870078;-3.080778;-0.223666;-1.039228;-0.653862;-1.255884;-0.517578;0.451904;-0.358887;0.676631;-0.315025;-0.665214;0.020501
29473;24.439269;-10.430250;-0.296746;0.341179;0.555175;-0.980584;-0.526855;0.443848;-0.369141;0.680819;-0.307786;-0.664467;0.015387
29474;8.502792;-8.602008;-3.531809;0.958545;0.657372;0.319815;-0.512207;0.446533;-0.380859;0.686922;-0.304227;-0.659660;0.020803
29475;-0.474418;2.752977;-1.503237;1.523941;-0.610449;0.401864;-0.517578;0.434326;-0.389893;0.687369;-0.297617;-0.661709;0.033012
29476;-1.842997;6.601452;-0.239736;1.645620;-1.057355;-0.474860;-0.524658;0.424072;-0.393799;0.685728;-0.285278;-0.668305;0.041964
29477;2.694654;6.840667;-0.529643;-0.014149;-0.989340;-1.324724;-0.552490;0.414551;-0.379395;0.680657;-0.277645;-0.676961;0.036636
29478;13.903435;5.876974;-5.329064;-1.475510;-1.106070;-1.691129;-0.569336;0.391602;-0.357178;0.671446;-0.276111;-0.687366;0.021233
29479;18.111824;2.276793;-6.169565;-1.933593;-0.353595;-0.991235;-0.581543;0.403076;-0.339600;0.665103;-0.281174;-0.691773;0.005368
29480;9.811963;-3.048693;-3.863817;-2.064249;-0.046757;-0.481289;-0.578857;0.411865;-0.328857;0.659978;-0.289821;-0.693072;-0.009156
29481;7.219142;-5.316931;-1.387675;-1.470787;-0.353581;-0.613389;-0.587891;0.420410;-0.314941;0.654335;-0.294397;-0.696251;-0.020234
29482;7.632051;-4.771135;0.025938;-1.111346;-0.385070;-0.743362;-0.596436;0.415039;-0.307861;0.649264;-0.296221;-0.699870;-0.029851
29483;7.943887;-2.743036;-2.307701;-0.904743;-0.414105;-0.718649;-0.599365;0.420654;-0.293213;0.644463;-0.297047;-0.703550;-0.038050
29484;8.353472;-1.358462;-3.384716;-1.075960;-0.335824;-0.731482;-0.612305;0.411133;-0.284180;0.639617;-0.298661;-0.706706;-0.047511
29485;8.657438;-2.486664;-4.087996;-1.002841;-0.341632;-0.756985;-0.629150;0.419434;-0.271729;0.634828;-0.299703;-0.709903;-0.056657
29486;8.166120;-3.989086;-3.703392;-0.593801;-0.589416;-0.752071;-0.630615;0.410889;-0.259277;0.629527;-0.298698;-0.714521;-0.062733
29487;8.403147;-3.574569;-2.645566;-0.192051;-0.796241;-0.779994;-0.642334;0.390625;-0.250977;0.623922;-0.295505;-0.720442;-0.066040
29488;9.288165;-2.676713;-1.838771;0.256025;-0.692468;-0.791099;-0.653564;0.392822;-0.250000;0.619983;-0.289834;-0.726039;-0.066963
29489;9.526601;-1.859974;-0.891610;0.391645;-0.473956;-0.807399;-0.650879;0.381348;-0.246094;0.617637;-0.283221;-0.730568;-0.067674
29490;9.318828;-1.499462;-0.629846;0.173735;-0.296409;-0.847502;-0.666748;0.375244;-0.247803;0.615797;-0.277368;-0.734108;-0.070334
29491;9.166886;-1.116366;-0.641770;-0.181105;-0.262278;-0.818761;-0.671143;0.365479;-0.243408;0.613328;-0.273476;-0.737157;-0.075095
29492;9.169201;-0.888582;-1.029470;-0.525640;-0.315920;-0.750623;-0.681396;0.356445;-0.229248;0.609751;-0.271782;-0.740065;-0.081500
29493;9.199092;-0.882155;-1.437841;-0.803394;-0.366486;-0.730105;-0.682129;0.350830;-0.222656;0.605200;-0.271639;-0.742936;-0.089394
29494;9.426368;-1.059893;-1.697891;-0.933892;-0.321500;-0.770979;-0.684570;0.351074;-0.216309;0.600541;-0.271843;-0.745500;-0.098396
29495;9.361557;-1.078256;-1.662851;-0.920920;-0.213630;-0.792840;-0.690674;0.338867;-0.204590;0.596499;-0.271730;-0.747503;-0.107662
29496;9.456130;-1.047945;-1.410135;-0.862264;-0.152196;-0.791362;-0.696289;0.335938;-0.190430;0.592913;-0.271253;-0.749174;-0.116683
29497;9.592917;-1.438920;-1.287978;-0.883782;-0.182178;-0.793237;-0.702148;0.328613;-0.198486;0.589031;-0.270875;-0.750901;-0.125769
29498;9.026619;-2.762058;-1.350947;-1.020106;-0.272250;-0.864731;-0.707275;0.320068;-0.181641;0.584135;-0.270784;-0.753000;-0.135841
29499;8.320767;-4.584927;-1.481992;-0.963924;-0.257969;-0.977757;-0.718018;0.308594;-0.172852;0.579252;-0.269662;-0.755247;-0.146123
29500;7.516370;-5.707337;-1.709101;-0.631731;-0.288487;-1.023561;-0.724365;0.302979;-0.170898;0.574798;-0.266658;-0.758055;-0.154444
29501;7.120126;-5.526196;-1.899629;-0.291520;-0.239343;-0.980334;-0.729004;0.296875;-0.162354;0.571416;-0.262215;-0.760899;-0.160498
29502;8.145411;-5.324899;-3.087135;0.020203;-0.189564;-0.750591;-0.739990;0.288086;-0.160645;0.569305;-0.257667;-0.763376;-0.163576
29503;8.499428;-4.439941;-3.685974;0.319738;-0.206394;-0.458292;-0.743896;0.284912;-0.158691;0.568111;-0.253575;-0.765688;-0.163313
29504;8.772105;-3.515979;-3.733756;0.403432;-0.303203;-0.243475;-0.736572;0.278076;-0.160889;0.566755;-0.250587;-0.768103;-0.161286
29505;10.508264;-2.721687;-2.813018;0.205298;-0.298375;-0.071758;-0.742432;0.271729;-0.160889;0.565238;-0.249626;-0.769859;-0.159720
29506;12.065970;-2.303286;-2.653596;-0.168294;-0.099107;0.088040;-0.743896;0.276855;-0.161865;0.564433;-0.251184;-0.769841;-0.160208
29507;13.119720;-3.596752;-3.017973;-0.519174;0.097016;0.227426;-0.736816;0.281250;-0.157471;0.564331;-0.255023;-0.768130;-0.162697
29508;13.854878;-4.699504;-2.863600;-0.506805;0.368387;0.450284;-0.743164;0.288818;-0.157715;0.566278;-0.259856;-0.764658;-0.164625
