// Start Time: Unknown
// Update Rate: 60.0Hz
// Filter Profile: human (46.1)
// Firmware Version: 4.4.0
PacketCounter;Acc_X;Acc_Y;Acc_Z;Gyr_X;Gyr_Y;Gyr_Z;Mag_X;Mag_Y;Mag_Z;Quat_q0;Quat_q1;Quat_q2;Quat_q3
28597;9.445259;-1.036245;-2.368993;0.019122;-0.000423;-0.005653;-0.705566;0.418457;-0.208496;0.584894;-0.326173;-0.717338;-0.192189
28598;9.444817;-0.997254;-2.407555;0.015532;-0.001966;-0.005005;-0.702881;0.421631;-0.205322;0.584916;-0.326071;-0.717386;-0.192115
28599;9.425479;-1.009017;-2.418921;0.008684;0.001018;-0.000286;-0.711182;0.418457;-0.200195;0.584943;-0.326031;-0.717395;-0.192066
28600;9.459842;-1.030992;-2.435177;0.006880;0.004195;-0.001913;-0.706299;0.418213;-0.198975;0.584983;-0.325979;-0.717391;-0.192046
28601;9.451935;-1.016529;-2.341920;0.001331;0.006949;0.000396;-0.702148;0.430664;-0.213135;0.585027;-0.325964;-0.717360;-0.192055
28602;9.485514;-1.025416;-2.350696;-0.006898;0.003701;-0.001990;-0.706055;0.425537;-0.204102;0.585026;-0.325980;-0.717337;-0.192116
28603;9.462040;-1.046784;-2.344549;-0.011063;-0.000029;-0.000746;-0.706787;0.419434;-0.204346;0.584994;-0.326028;-0.717323;-0.192187
28604;9.417614;-1.028426;-2.382198;-0.011885;-0.006436;0.000820;-0.706543;0.429932;-0.201416;0.584925;-0.326100;-0.717332;-0.192238
28605;9.431267;-1.048779;-2.404820;-0.007182;-0.011186;-0.001755;-0.708740;0.416016;-0.197266;0.584835;-0.326142;-0.717381;-0.192260
28606;9.443964;-1.056624;-2.420390;0.000203;-0.009936;0.000368;-0.715820;0.414795;-0.205078;0.584775;-0.326160;-0.717430;-0.192230
28607;9.431038;-1.087515;-2.369064;0.003703;-0.005630;0.000450;-0.704346;0.414551;-0.209961;0.584747;-0.326156;-0.717466;-0.192188
28608;9.471226;-1.090155;-2.361488;0.012652;-0.008289;0.003094;-0.703125;0.421387;-0.201172;0.584734;-0.326131;-0.717520;-0.192069
28609;9.501004;-1.088018;-2.305431;0.013911;-0.019190;-0.000050;-0.706299;0.419434;-0.200684;0.584656;-0.326100;-0.717636;-0.191925
28610;9.478455;-1.035954;-2.344603;0.004405;-0.026617;0.001806;-0.706055;0.419189;-0.204346;0.584518;-0.326139;-0.717762;-0.191807
28611;9.437793;-0.981762;-2.448210;0.001946;-0.015888;-0.002639;-0.713623;0.424316;-0.203125;0.584434;-0.326145;-0.717841;-0.191757
28612;9.391367;-1.012300;-2.491133;-0.002965;-0.008174;0.003713;-0.707275;0.416016;-0.208984;0.584385;-0.326199;-0.717864;-0.191729
28613;9.435662;-1.113729;-2.576439;0.002653;0.003435;0.007010;-0.712891;0.417725;-0.200928;0.584417;-0.326226;-0.717838;-0.191683
28614;9.396075;-1.116774;-2.488382;0.008410;0.002334;0.006041;-0.710693;0.420166;-0.208008;0.584440;-0.326233;-0.717840;-0.191592
28615;9.435381;-1.033768;-2.454102;0.007858;-0.004264;0.008468;-0.701660;0.418701;-0.201904;0.584423;-0.326275;-0.717868;-0.191466
28616;9.461565;-1.051613;-2.481087;0.019061;0.010643;0.005058;-0.711182;0.416016;-0.205078;0.584519;-0.326217;-0.717853;-0.191329
28617;9.465966;-1.068966;-2.449900;0.027996;0.019364;0.001720;-0.708008;0.416748;-0.203857;0.584673;-0.326083;-0.717829;-0.191177
28618;9.421234;-1.031196;-2.373790;0.033491;0.007064;0.005873;-0.699707;0.413086;-0.207031;0.584776;-0.325968;-0.717862;-0.190937
28619;9.418286;-0.995214;-2.352616;0.028633;-0.019271;0.006515;-0.705811;0.426758;-0.198242;0.584726;-0.325906;-0.718006;-0.190654
28620;9.420374;-0.974720;-2.366884;0.025830;-0.036459;0.010858;-0.715332;0.422119;-0.201660;0.584556;-0.325945;-0.718213;-0.190327
28621;9.431016;-0.982270;-2.481304;0.011855;-0.025872;0.017607;-0.709961;0.420410;-0.203125;0.584409;-0.326062;-0.718343;-0.190088
28622;9.448949;-1.008915;-2.529644;-0.006681;-0.007234;0.021810;-0.703857;0.424316;-0.199463;0.584335;-0.326251;-0.718342;-0.189996
28623;9.472472;-0.989332;-2.535113;-0.021338;0.018594;0.014874;-0.705078;0.425781;-0.197021;0.584364;-0.326440;-0.718206;-0.190098
28624;9.430451;-0.989153;-2.480716;-0.026134;0.018010;0.015134;-0.713623;0.426514;-0.204102;0.584358;-0.326662;-0.718074;-0.190230
28625;9.495749;-0.983539;-2.483662;-0.030612;0.011907;0.017843;-0.705322;0.429443;-0.203857;0.584287;-0.326928;-0.717974;-0.190367
28626;9.487259;-1.031909;-2.400709;-0.021831;0.018250;0.019862;-0.717773;0.424072;-0.209229;0.584301;-0.327157;-0.717832;-0.190466
28627;9.425731;-1.043360;-2.357888;-0.023150;0.017148;0.008128;-0.713379;0.426270;-0.198486;0.584260;-0.327293;-0.717761;-0.190626
28628;9.416694;-1.060548;-2.417562;-0.018422;0.003568;0.009214;-0.699463;0.430908;-0.203369;0.584153;-0.327458;-0.717747;-0.190723
28629;9.416193;-1.096371;-2.474709;-0.017855;0.002265;0.010690;-0.702148;0.423340;-0.205322;0.584107;-0.327645;-0.717677;-0.190807
28630;9.419802;-1.113438;-2.446471;-0.013072;-0.000645;0.012505;-0.711914;0.421143;-0.205078;0.584062;-0.327782;-0.717647;-0.190822
28631;9.371460;-1.145794;-2.427443;-0.010627;0.000006;0.010975;-0.710938;0.425293;-0.202881;0.583985;-0.327885;-0.717661;-0.190827
28632;9.422529;-1.157983;-2.373416;-0.008239;-0.010011;0.008711;-0.699219;0.427246;-0.192139;0.583848;-0.328013;-0.717720;-0.190804
28633;9.459752;-1.123206;-2.345826;-0.000193;-0.021865;0.008280;-0.715576;0.423096;-0.201416;0.583689;-0.328172;-0.717805;-0.190701
28634;9.475964;-1.122580;-2.380776;-0.006923;-0.022557;0.012029;-0.702148;0.422607;-0.201904;0.583480;-0.328319;-0.717931;-0.190612
28635;9.444331;-1.087773;-2.479915;-0.007660;-0.007825;0.008116;-0.708496;0.425537;-0.206299;0.583427;-0.328422;-0.717937;-0.190573
28636;9.404253;-1.099216;-2.496683;-0.005297;-0.004409;0.007317;-0.715332;0.419922;-0.202881;0.583379;-0.328508;-0.717946;-0.190540
28637;9.371185;-1.103916;-2.495918;-0.005849;-0.015421;0.011566;-0.702148;0.424072;-0.201660;0.583231;-0.328601;-0.718046;-0.190457
28638;9.475876;-1.100682;-2.494620;-0.014038;-0.011472;0.011997;-0.705078;0.420166;-0.196045;0.583137;-0.328779;-0.718049;-0.190423
28639;9.431321;-1.074796;-2.429402;-0.019876;0.000308;0.009804;-0.708008;0.427734;-0.200439;0.583056;-0.328939;-0.718029;-0.190468
28640;9.427909;-1.024632;-2.400910;-0.029201;-0.001039;0.011182;-0.706787;0.424561;-0.203857;0.582945;-0.329197;-0.717974;-0.190573
28641;9.453769;-1.041169;-2.429396;-0.027513;-0.001656;0.006585;-0.707520;0.422363;-0.205566;0.582859;-0.329369;-0.717936;-0.190682
28642;9.459465;-1.056402;-2.461818;-0.014325;0.001033;0.005415;-0.706299;0.424316;-0.201416;0.582835;-0.329428;-0.717917;-0.190722
28643;9.419457;-1.093119;-2.431217;-0.006458;0.007022;0.000721;-0.710449;0.426514;-0.200439;0.582842;-0.329451;-0.717891;-0.190764
28644;9.403176;-1.108079;-2.406364;0.002270;0.002687;0.002005;-0.717041;0.437256;-0.198242;0.582822;-0.329466;-0.717904;-0.190746
28645;9.432945;-1.140806;-2.405953;0.000552;-0.004798;0.003540;-0.707520;0.424072;-0.193604;0.582703;-0.329624;-0.717931;-0.190739
28646;9.459083;-1.083879;-2.415298;-0.006515;0.000957;0.005099;-0.705078;0.428467;-0.201660;0.582636;-0.329713;-0.717941;-0.190750
28647;9.429576;-1.099662;-2.479642;-0.004877;0.011205;0.004297;-0.708740;0.413818;-0.206055;0.582697;-0.329784;-0.717851;-0.190778
28648;9.430798;-1.113114;-2.484952;0.000380;0.014160;0.006491;-0.702393;0.428223;-0.197266;0.582823;-0.329631;-0.717828;-0.190748
28649;9.389135;-1.086442;-2.476801;-0.003216;0.012624;0.007139;-0.712402;0.423340;-0.193848;0.582877;-0.329744;-0.717730;-0.190754
28650;9.375443;-1.066887;-2.454549;-0.012278;0.003180;0.013261;-0.706299;0.430420;-0.203369;0.582785;-0.329892;-0.717729;-0.190782
28651;9.450974;-1.031733;-2.451135;-0.017767;0.004099;0.015089;-0.706299;0.433105;-0.197754;0.582785;-0.330115;-0.717618;-0.190813
28652;9.433157;-1.070739;-2.476081;-0.003290;0.012077;0.016891;-0.699951;0.430176;-0.199707;0.582828;-0.330331;-0.717491;-0.190787
28653;9.432171;-1.086795;-2.420747;0.010906;0.015644;0.012707;-0.714844;0.428223;-0.209229;0.582973;-0.330409;-0.717364;-0.190686
28654;9.440525;-1.094971;-2.407377;0.014877;0.013300;0.011940;-0.703613;0.428223;-0.206787;0.583119;-0.330348;-0.717301;-0.190580
28655;9.462950;-1.089362;-2.358957;0.007455;0.000676;0.015773;-0.706299;0.421631;-0.193848;0.583213;-0.330404;-0.717237;-0.190441
28656;9.429228;-1.091532;-2.452741;0.000188;-0.004042;0.019623;-0.706299;0.423828;-0.196533;0.583141;-0.330502;-0.717278;-0.190335
28657;9.408740;-1.140363;-2.522130;-0.000153;-0.002195;0.012304;-0.709961;0.427246;-0.196777;0.583090;-0.330567;-0.717306;-0.190272
28658;9.368287;-1.065958;-2.512326;-0.000613;-0.004573;0.009852;-0.712158;0.425537;-0.201904;0.582998;-0.330662;-0.717349;-0.190228
28659;9.433852;-0.999677;-2.507151;-0.024674;-0.013494;0.015508;-0.701172;0.427002;-0.198242;0.582835;-0.330849;-0.717384;-0.190270
28660;9.440479;-0.993914;-2.490776;-0.037500;-0.002201;0.016211;-0.707275;0.435303;-0.203369;0.582724;-0.331161;-0.717296;-0.190397
28661;9.425502;-1.073906;-2.443153;-0.049980;0.006135;0.017040;-0.699707;0.426270;-0.201660;0.582645;-0.331584;-0.717102;-0.190633
28662;9.479269;-1.124269;-2.409504;-0.059576;0.013998;0.020860;-0.698975;0.434326;-0.203613;0.582626;-0.331950;-0.716877;-0.190903
28663;9.456062;-1.232979;-2.428606;-0.061006;0.017720;0.017300;-0.705566;0.426514;-0.196045;0.582641;-0.332404;-0.716573;-0.191207
28664;9.439420;-1.282266;-2.460024;-0.045427;0.022707;0.008167;-0.701172;0.429932;-0.200684;0.582606;-0.332621;-0.716421;-0.191506
28665;9.390163;-1.209046;-2.500148;-0.029749;0.025111;0.005249;-0.702148;0.426514;-0.201416;0.582699;-0.332775;-0.716221;-0.191705
28666;9.415025;-1.187224;-2.501940;-0.015499;0.032340;0.005978;-0.708740;0.436768;-0.198975;0.582880;-0.332783;-0.716035;-0.191833
28667;9.405583;-1.131194;-2.477316;0.005416;0.047442;0.001905;-0.706299;0.430420;-0.204590;0.583126;-0.332811;-0.715797;-0.191926
28668;9.404244;-1.081653;-2.440854;0.008833;0.042154;0.008425;-0.700928;0.436768;-0.193359;0.583436;-0.332730;-0.715580;-0.191933
28669;9.464762;-1.061698;-2.407199;0.002023;0.034292;0.009323;-0.703369;0.431641;-0.196777;0.583565;-0.332924;-0.715376;-0.191964
28670;9.468582;-1.066550;-2.366963;-0.005001;0.024789;0.008867;-0.699219;0.426758;-0.200439;0.583645;-0.333033;-0.715247;-0.192015
28671;9.421634;-1.071573;-2.390912;-0.011199;0.013617;0.003793;-0.703857;0.427979;-0.199219;0.583702;-0.333053;-0.715174;-0.192075
28672;9.497094;-1.103616;-2.500366;-0.014509;0.015221;-0.003719;-0.708252;0.425781;-0.204346;0.583704;-0.333056;-0.715133;-0.192218
28673;9.429865;-1.092421;-2.519838;0.004389;0.041617;-0.014104;-0.701660;0.428467;-0.210205;0.583939;-0.332760;-0.715037;-0.192376
28674;9.421389;-1.085666;-2.464267;0.014897;0.033907;-0.018132;-0.703857;0.436035;-0.206055;0.584251;-0.332434;-0.714919;-0.192431
28675;9.446307;-1.014862;-2.399821;0.018414;0.029362;-0.014403;-0.706543;0.433350;-0.206055;0.584472;-0.332296;-0.714797;-0.192454
28676;9.453094;-0.981137;-2.362508;0.007872;0.024568;-0.011650;-0.709717;0.426025;-0.207275;0.584619;-0.332181;-0.714709;-0.192529
28677;9.445351;-1.000611;-2.323962;-0.007449;0.022868;-0.003772;-0.699707;0.425781;-0.199707;0.584723;-0.332042;-0.714650;-0.192672
28678;9.431589;-1.052794;-2.320235;-0.022362;0.002964;0.002220;-0.697510;0.430908;-0.199219;0.584632;-0.332153;-0.714638;-0.192802
28679;9.475386;-1.105043;-2.340650;-0.027350;0.004244;-0.000956;-0.706543;0.430420;-0.199219;0.584537;-0.332372;-0.714568;-0.192973
28680;9.476341;-1.116297;-2.348073;-0.020194;0.000150;-0.005048;-0.707275;0.429688;-0.210938;0.584384;-0.332481;-0.714595;-0.193145
28681;9.461742;-1.042112;-2.358408;-0.010717;-0.003106;-0.007613;-0.707031;0.430908;-0.200195;0.584391;-0.332402;-0.714603;-0.193231
28682;9.471632;-0.959020;-2.382045;-0.004127;-0.005723;-0.006229;-0.704346;0.430664;-0.204102;0.584262;-0.332432;-0.714678;-0.193295
28683;9.442546;-0.938362;-2.390972;-0.010909;-0.005505;-0.002265;-0.705811;0.437012;-0.205322;0.584191;-0.332485;-0.714693;-0.193359
28684;9.403623;-0.960425;-2.415230;-0.022229;-0.001641;0.000986;-0.701172;0.428467;-0.195312;0.584125;-0.332699;-0.714614;-0.193484
28685;9.425780;-1.111826;-2.414587;-0.034779;-0.000317;0.005899;-0.707764;0.426758;-0.195312;0.583936;-0.332956;-0.714596;-0.193680
28686;9.434955;-1.215681;-2.438333;-0.043750;0.003298;0.003483;-0.707031;0.430908;-0.202148;0.583710;-0.333166;-0.714602;-0.193977
28687;9.421579;-1.319365;-2.405621;-0.043011;0.008961;0.004749;-0.697021;0.426025;-0.203125;0.583622;-0.333383;-0.714498;-0.194252
28688;9.431655;-1.315403;-2.351004;-0.034367;0.011790;0.004995;-0.693359;0.434814;-0.207764;0.583651;-0.333498;-0.714371;-0.194435
28689;9.415319;-1.290817;-2.364407;-0.008922;0.006353;0.002235;-0.700928;0.437012;-0.196045;0.583795;-0.333619;-0.714199;-0.194429
28690;9.441864;-1.233803;-2.372514;0.014122;-0.005997;0.002296;-0.704346;0.434814;-0.204346;0.583723;-0.333768;-0.714218;-0.194317
28691;9.436634;-1.159087;-2.329128;0.033560;-0.011049;-0.000624;-0.697266;0.428711;-0.203369;0.583769;-0.333673;-0.714290;-0.194079
28692;9.434105;-1.082755;-2.345603;0.035107;-0.001711;-0.005529;-0.705078;0.427979;-0.199463;0.583895;-0.333454;-0.714349;-0.193857
28693;9.466093;-1.067082;-2.339073;0.032272;0.010335;-0.007493;-0.710205;0.429932;-0.202637;0.583983;-0.333208;-0.714424;-0.193738
28694;9.445410;-1.087656;-2.391431;0.020975;0.013275;-0.004491;-0.702393;0.435547;-0.205566;0.584073;-0.333019;-0.714451;-0.193693
28695;9.457806;-1.117711;-2.454271;0.015402;-0.000881;-0.001662;-0.704590;0.429199;-0.205078;0.584144;-0.333019;-0.714422;-0.193586
28696;9.442103;-1.106303;-2.475571;0.017243;0.002923;-0.004155;-0.707764;0.428467;-0.208740;0.584220;-0.332866;-0.714452;-0.193506
28697;9.434031;-1.053150;-2.419905;0.017855;0.013022;-0.008603;-0.702637;0.434570;-0.205811;0.584380;-0.332611;-0.714448;-0.193478
28698;9.404851;-1.020175;-2.418552;0.013693;0.008381;-0.007639;-0.707764;0.427979;-0.206055;0.584483;-0.332556;-0.714401;-0.193434
28699;9.418130;-1.027809;-2.432013;0.004732;-0.005664;-0.002822;-0.691406;0.427734;-0.200195;0.584458;-0.332458;-0.714472;-0.193416
28700;9.422495;-1.056488;-2.410930;0.000181;0.006977;-0.000209;-0.713379;0.426514;-0.200439;0.584508;-0.332504;-0.714417;-0.193390
28701;9.452427;-1.128068;-2.370872;-0.001396;0.007393;0.001334;-0.714600;0.422607;-0.201904;0.584443;-0.332439;-0.714480;-0.193466
28702;9.493202;-1.169839;-2.321786;0.000250;0.017629;0.000569;-0.701416;0.428711;-0.198242;0.584458;-0.332261;-0.714522;-0.193571
28703;9.449825;-1.190241;-2.318084;0.003516;0.013120;-0.003506;-0.697021;0.430908;-0.202148;0.584467;-0.332262;-0.714503;-0.193612
28704;9.474326;-1.128634;-2.360007;0.010356;0.011065;-0.007960;-0.710938;0.438477;-0.204346;0.584552;-0.332229;-0.714454;-0.193592
28705;9.475159;-1.088515;-2.395965;0.021565;0.015291;-0.012024;-0.700439;0.424316;-0.207520;0.584640;-0.332157;-0.714420;-0.193579
28706;9.400410;-1.011468;-2.417251;0.027152;0.002789;-0.010943;-0.707764;0.423828;-0.207764;0.584768;-0.331854;-0.714489;-0.193454
28707;9.382026;-0.961790;-2.417474;0.017442;-0.012339;-0.002246;-0.693848;0.423096;-0.204346;0.584753;-0.331639;-0.714633;-0.193336
28708;9.460675;-0.976581;-2.443911;0.008882;-0.005270;0.004979;-0.696289;0.426270;-0.207275;0.584795;-0.331588;-0.714658;-0.193207
28709;9.409474;-1.010109;-2.364940;-0.005764;0.004944;0.012781;-0.709717;0.422363;-0.211914;0.584894;-0.331650;-0.714563;-0.193151
28710;9.446124;-1.037281;-2.345955;-0.026578;-0.000428;0.017310;-0.707275;0.433838;-0.200684;0.584903;-0.331664;-0.714528;-0.193228
28711;9.445711;-1.038705;-2.346988;-0.031480;-0.006323;0.015202;-0.706055;0.429443;-0.204102;0.584718;-0.332029;-0.714477;-0.193349
28712;9.470734;-1.043287;-2.368582;-0.028439;-0.003483;0.013102;-0.705566;0.437012;-0.203613;0.584613;-0.332244;-0.714433;-0.193457
28713;9.491487;-1.058038;-2.372231;-0.025425;0.000276;0.011249;-0.705811;0.428467;-0.201172;0.584537;-0.332551;-0.714328;-0.193551
28714;9.449836;-1.117590;-2.392983;-0.014757;0.005054;0.012416;-0.696533;0.427002;-0.201904;0.584488;-0.332682;-0.714289;-0.193618
28715;9.406744;-1.112630;-2.437159;-0.002359;0.000245;0.005665;-0.704834;0.429443;-0.202881;0.584492;-0.332726;-0.714272;-0.193590
28716;9.437220;-1.158802;-2.443617;0.000407;0.003444;0.009656;-0.708008;0.435303;-0.205078;0.584500;-0.332766;-0.714255;-0.193562
28717;9.457645;-1.161276;-2.437758;0.001905;0.014615;0.005238;-0.706299;0.432129;-0.199951;0.584585;-0.332811;-0.714161;-0.193572
28718;9.467971;-1.159095;-2.380794;0.000692;0.024566;0.008175;-0.702148;0.427979;-0.202148;0.584668;-0.332874;-0.714051;-0.193621
28719;9.413481;-1.124296;-2.357839;-0.003011;0.017717;0.006456;-0.708496;0.427979;-0.203857;0.584745;-0.332882;-0.713973;-0.193662
28720;9.427182;-1.059978;-2.350944;-0.012309;0.001296;0.012703;-0.704102;0.431396;-0.204102;0.584697;-0.332954;-0.713968;-0.193704
28721;9.443829;-1.046307;-2.374794;-0.008509;0.000812;0.008541;-0.703125;0.425537;-0.203369;0.584677;-0.333054;-0.713934;-0.193718
28722;9.472777;-1.066686;-2.366255;0.002531;0.006890;0.001078;-0.700928;0.427002;-0.203613;0.584707;-0.332957;-0.713952;-0.193726
28723;9.464916;-1.135074;-2.394740;0.000969;0.015376;0.005705;-0.701172;0.429443;-0.196533;0.584804;-0.332916;-0.713890;-0.193734
28724;9.431901;-1.126952;-2.383472;0.004565;0.008076;0.008698;-0.694092;0.439453;-0.194824;0.584773;-0.333010;-0.713875;-0.193720
28725;9.415698;-1.064944;-2.435288;0.005902;0.002522;0.007858;-0.704346;0.431396;-0.208252;0.584720;-0.333324;-0.713787;-0.193663
28726;9.399172;-1.007661;-2.391920;0.001444;-0.000999;0.008203;-0.708984;0.437744;-0.203369;0.584766;-0.333324;-0.713766;-0.193601
28727;9.428725;-1.041329;-2.391218;-0.005550;0.001996;0.008993;-0.696289;0.434570;-0.198486;0.584723;-0.333494;-0.713717;-0.193621
28728;9.449436;-1.095621;-2.355335;-0.010756;0.006216;0.009596;-0.707520;0.437744;-0.198242;0.584691;-0.333733;-0.713623;-0.193653
28729;9.458817;-1.128117;-2.358865;-0.016591;0.000337;0.014644;-0.713867;0.434570;-0.200195;0.584560;-0.334036;-0.713570;-0.193719
28730;9.450523;-1.124182;-2.370626;-0.019649;-0.006921;0.018545;-0.706299;0.421875;-0.196045;0.584385;-0.334278;-0.713584;-0.193779
28731;9.466910;-1.076920;-2.338185;-0.020179;-0.006530;0.016824;-0.704346;0.428711;-0.204346;0.584207;-0.334342;-0.713688;-0.193824
28732;9.447916;-1.102322;-2.358301;-0.019413;-0.001022;0.011145;-0.705078;0.424561;-0.204346;0.584165;-0.334418;-0.713671;-0.193882
28733;9.446341;-1.164551;-2.370883;-0.013815;-0.001047;0.013497;-0.701416;0.433838;-0.200684;0.584143;-0.334401;-0.713693;-0.193895
28734;9.451221;-1.168329;-2.396455;-0.012483;-0.006602;0.012652;-0.705322;0.433594;-0.197266;0.584057;-0.334598;-0.713671;-0.193896
28735;9.466754;-1.142419;-2.414099;-0.011074;-0.005926;0.014401;-0.700439;0.434082;-0.206787;0.583924;-0.334803;-0.713680;-0.193909
28736;9.440223;-1.127604;-2.386857;-0.007923;0.002996;0.007959;-0.708008;0.436768;-0.201172;0.583986;-0.334868;-0.713600;-0.193902
28737;9.391683;-1.159101;-2.367873;-0.000539;0.004962;0.003425;-0.698242;0.438965;-0.206299;0.583968;-0.334932;-0.713578;-0.193928
28738;9.458160;-1.178913;-2.386844;0.003063;-0.007682;0.007965;-0.700684;0.432861;-0.201904;0.583997;-0.335057;-0.713525;-0.193824
28739;9.449165;-1.161812;-2.391116;0.003576;-0.002741;0.008129;-0.707764;0.436279;-0.198730;0.583995;-0.335095;-0.713527;-0.193751
28740;9.462390;-1.136801;-2.347159;0.002124;0.002838;0.005073;-0.706299;0.430908;-0.205322;0.583948;-0.335166;-0.713532;-0.193753
28741;9.447552;-1.138655;-2.375554;0.001110;0.006358;0.006282;-0.698975;0.437988;-0.198730;0.584008;-0.335103;-0.713516;-0.193739
28742;9.417474;-1.180741;-2.394691;0.004796;0.005131;0.004917;-0.701416;0.435791;-0.198486;0.584020;-0.335220;-0.713462;-0.193702
28743;9.423801;-1.162301;-2.368419;0.006982;0.001565;0.004350;-0.704590;0.429443;-0.196289;0.584003;-0.335282;-0.713460;-0.193653
28744;9.455549;-1.147464;-2.362631;0.006047;0.002331;0.004815;-0.697754;0.426270;-0.199707;0.583954;-0.335246;-0.713525;-0.193623
28745;9.444165;-1.126967;-2.401812;0.007000;-0.004540;0.012605;-0.708252;0.434814;-0.197998;0.583951;-0.335210;-0.713579;-0.193493
28746;9.442251;-1.103739;-2.387564;0.008933;-0.003492;0.009375;-0.698975;0.433105;-0.200195;0.583885;-0.335259;-0.713631;-0.193420
28747;9.420786;-1.091350;-2.385885;0.009244;-0.014511;0.006401;-0.700928;0.430176;-0.203857;0.583816;-0.335297;-0.713704;-0.193290
28748;9.425353;-1.094739;-2.412864;0.003027;-0.015749;0.004878;-0.709473;0.437012;-0.206299;0.583758;-0.335263;-0.713795;-0.193189
28749;9.445664;-1.109733;-2.417869;-0.000762;-0.010847;0.007235;-0.705811;0.433838;-0.195068;0.583711;-0.335309;-0.713826;-0.193138
28750;9.460121;-1.196396;-2.417064;-0.005813;-0.007562;0.011497;-0.704590;0.442627;-0.200684;0.583567;-0.335462;-0.713873;-0.193132
28751;9.498701;-1.175360;-2.393861;-0.006269;0.004400;0.010816;-0.700928;0.428223;-0.203857;0.583559;-0.335685;-0.713771;-0.193145
28752;9.432099;-1.157678;-2.374428;-0.005888;0.004947;0.008880;-0.700195;0.437012;-0.204590;0.583612;-0.335645;-0.713750;-0.193134
28753;9.446694;-1.106092;-2.375520;-0.003782;0.004134;0.009056;-0.705811;0.438965;-0.194092;0.583672;-0.335735;-0.713666;-0.193108
28754;9.399078;-1.111208;-2.402692;-0.003554;-0.004131;0.006825;-0.698975;0.434814;-0.196777;0.583538;-0.335915;-0.713686;-0.193123
28755;9.445127;-1.129888;-2.426814;-0.002975;-0.006364;0.008047;-0.699219;0.436523;-0.202148;0.583457;-0.336040;-0.713703;-0.193088
28756;9.471711;-1.164658;-2.366586;-0.002579;-0.001398;0.004307;-0.703857;0.434570;-0.201172;0.583459;-0.336113;-0.713672;-0.193069
28757;9.444990;-1.183449;-2.396992;-0.000853;-0.002759;0.006420;-0.707031;0.430908;-0.198730;0.583433;-0.336147;-0.713684;-0.193042
28758;9.454003;-1.163546;-2.431296;0.004225;0.007358;0.003692;-0.702393;0.436279;-0.202637;0.583442;-0.336071;-0.713714;-0.193040
28759;9.412417;-1.136240;-2.423918;0.004794;0.010462;0.003359;-0.705811;0.440186;-0.196045;0.583527;-0.336059;-0.713655;-0.193022
28760;9.414258;-1.162220;-2.436992;0.004818;0.009544;0.003111;-0.701904;0.428711;-0.202148;0.583518;-0.336146;-0.713617;-0.193036
28761;9.417081;-1.166205;-2.400219;-0.000390;0.004789;0.000380;-0.702393;0.437744;-0.207764;0.583549;-0.336037;-0.713642;-0.193042
28762;9.429493;-1.161889;-2.406363;-0.004041;-0.000234;0.003053;-0.700684;0.435059;-0.205322;0.583595;-0.336068;-0.713591;-0.193034
28763;9.431664;-1.114053;-2.401790;-0.005331;-0.000933;0.005207;-0.693359;0.434814;-0.202148;0.583619;-0.336102;-0.713559;-0.193023
28764;9.441996;-1.124233;-2.355244;-0.001772;0.002427;0.005081;-0.706543;0.427246;-0.202148;0.583667;-0.336160;-0.713503;-0.192984
28765;9.410959;-1.153437;-2.367508;0.000283;0.003449;0.005754;-0.701660;0.429443;-0.202148;0.583678;-0.336050;-0.713547;-0.192978
28766;9.449497;-1.166013;-2.401334;-0.002631;0.000439;0.004802;-0.705078;0.434814;-0.193359;0.583680;-0.336005;-0.713569;-0.192968
28767;9.450198;-1.179598;-2.408415;-0.001032;0.003669;0.008155;-0.700684;0.437500;-0.201904;0.583603;-0.336109;-0.713578;-0.192989
28768;9.422084;-1.173352;-2.423610;0.001606;-0.002107;0.004908;-0.705078;0.433350;-0.197998;0.583603;-0.336167;-0.713563;-0.192943
28769;9.440641;-1.150181;-2.404662;0.000145;-0.000944;0.003655;-0.703613;0.437744;-0.199219;0.583546;-0.336179;-0.713603;-0.192945
28770;9.444621;-1.127528;-2.413710;0.007377;0.011856;-0.000947;-0.708496;0.433594;-0.200928;0.583597;-0.336164;-0.713567;-0.192953
28771;9.408097;-1.141310;-2.392018;0.006606;0.016097;0.001369;-0.695557;0.434570;-0.201172;0.583674;-0.336072;-0.713541;-0.192975
28772;9.416382;-1.147592;-2.379121;0.004343;0.008100;0.000897;-0.701416;0.431641;-0.198486;0.583745;-0.336060;-0.713496;-0.192948
28773;9.417166;-1.160952;-2.385984;0.002131;-0.002503;0.006628;-0.702637;0.433594;-0.202881;0.583706;-0.336072;-0.713534;-0.192906
28774;9.451694;-1.110689;-2.384002;-0.002050;-0.007128;0.007581;-0.703369;0.436768;-0.213623;0.583670;-0.336101;-0.713562;-0.192858
28775;9.462285;-1.081798;-2.376455;-0.009903;-0.000767;0.006538;-0.699951;0.434814;-0.197510;0.583756;-0.336100;-0.713498;-0.192840
28776;9.425873;-1.108295;-2.364540;-0.012848;0.002478;0.004278;-0.702393;0.434570;-0.197266;0.583696;-0.336218;-0.713471;-0.192914
28777;9.421059;-1.153318;-2.404554;-0.011488;0.004986;0.006524;-0.702148;0.439453;-0.194824;0.583648;-0.336326;-0.713440;-0.192985
28778;9.442523;-1.215039;-2.471743;-0.007401;0.007947;0.008119;-0.705811;0.440430;-0.198730;0.583608;-0.336503;-0.713374;-0.193040
28779;9.441164;-1.190671;-2.456099;-0.003667;0.004878;0.006259;-0.702148;0.436768;-0.195557;0.583585;-0.336619;-0.713331;-0.193069
28780;9.408963;-1.160200;-2.395893;-0.007516;0.002637;0.005770;-0.704834;0.435791;-0.203857;0.583520;-0.336740;-0.713314;-0.193115
28781;9.440856;-1.144840;-2.390036;-0.004957;0.004952;0.001714;-0.697510;0.438965;-0.199219;0.583543;-0.336732;-0.713289;-0.193152
28782;9.421019;-1.195348;-2.363031;-0.004286;0.004384;0.000389;-0.705811;0.443359;-0.200684;0.583542;-0.336816;-0.713242;-0.193183
28783;9.428628;-1.235749;-2.409338;-0.002972;0.003390;0.004686;-0.703613;0.433594;-0.204346;0.583529;-0.336939;-0.713189;-0.193204
28784;9.428676;-1.236580;-2.408722;0.008750;0.003686;0.004416;-0.700928;0.427734;-0.194580;0.583596;-0.336855;-0.713192;-0.193139
28785;9.440141;-1.168462;-2.438131;0.015262;-0.000767;0.001410;-0.701660;0.439453;-0.206543;0.583567;-0.336728;-0.713298;-0.193054
28786;9.441036;-1.095680;-2.418172;0.009158;0.003316;0.002231;-0.699951;0.436523;-0.198242;0.583655;-0.336696;-0.713261;-0.192981
28787;9.428077;-1.088132;-2.403501;0.008583;0.005549;0.001008;-0.700684;0.434814;-0.208252;0.583679;-0.336685;-0.713256;-0.192946
28788;9.435498;-1.133379;-2.353624;0.005550;0.002568;-0.003847;-0.697998;0.436523;-0.203857;0.583760;-0.336569;-0.713253;-0.192914
28789;9.422090;-1.159467;-2.397548;-0.000046;-0.003500;0.002052;-0.701416;0.437744;-0.201904;0.583765;-0.336587;-0.713251;-0.192876
28790;9.450653;-1.179766;-2.390038;-0.000071;-0.002582;0.002299;-0.703125;0.440918;-0.194092;0.583745;-0.336625;-0.713254;-0.192856
28791;9.438747;-1.145460;-2.422004;-0.002635;0.000440;0.004801;-0.692871;0.442871;-0.200928;0.583662;-0.336772;-0.713247;-0.192877
28792;9.429494;-1.114878;-2.417781;-0.004193;0.005276;0.004538;-0.704346;0.428955;-0.202393;0.583703;-0.336924;-0.713144;-0.192870
28793;9.417465;-1.171921;-2.379434;-0.006135;0.009565;0.006211;-0.702881;0.435059;-0.202637;0.583741;-0.336867;-0.713129;-0.192909
28794;9.433120;-1.184667;-2.356997;-0.009170;0.000475;0.009607;-0.701416;0.441406;-0.206787;0.583729;-0.336940;-0.713102;-0.192921
28795;9.431910;-1.207014;-2.407671;-0.013136;-0.001737;0.005215;-0.696777;0.434082;-0.205811;0.583727;-0.337061;-0.713038;-0.192952
28796;9.478581;-1.190487;-2.373229;-0.002655;0.002131;-0.001649;-0.705078;0.435059;-0.208252;0.583774;-0.337013;-0.713021;-0.192956
28797;9.451663;-1.195341;-2.394865;0.008203;0.011109;-0.005305;-0.699219;0.438232;-0.207764;0.583891;-0.336852;-0.713000;-0.192959
28798;9.424265;-1.187685;-2.408097;0.013224;0.013300;-0.004173;-0.701172;0.435547;-0.208252;0.584052;-0.336724;-0.712942;-0.192911
28799;9.432636;-1.193755;-2.394874;0.015182;0.012655;-0.000951;-0.707031;0.438477;-0.194092;0.584213;-0.336575;-0.712899;-0.192843
28800;9.429203;-1.165405;-2.413413;0.011757;0.013689;0.001269;-0.696045;0.446533;-0.205811;0.584226;-0.336568;-0.712890;-0.192848
28801;9.428326;-1.140390;-2.396187;0.005588;0.015963;-0.002312;-0.701904;0.432617;-0.193604;0.584372;-0.336597;-0.712761;-0.192829
28802;9.427462;-1.114907;-2.379102;0.003844;0.012908;-0.002623;-0.700684;0.433838;-0.201172;0.584363;-0.336557;-0.712773;-0.192885
28803;9.438869;-1.170765;-2.395420;0.001599;0.014667;-0.006458;-0.697510;0.437988;-0.198730;0.584421;-0.336472;-0.712746;-0.192953
28804;9.461193;-1.196460;-2.403566;-0.000144;0.011612;-0.006770;-0.697510;0.444336;-0.202393;0.584445;-0.336468;-0.712712;-0.193017
28805;9.440963;-1.181529;-2.398407;-0.000969;0.017687;-0.003961;-0.699951;0.440918;-0.209473;0.584538;-0.336521;-0.712594;-0.193074
28806;9.437065;-1.139414;-2.409093;0.000176;0.018556;-0.003070;-0.698730;0.433350;-0.201904;0.584690;-0.336491;-0.712472;-0.193120
28807;9.437086;-1.126336;-2.398885;0.004125;0.017124;-0.003568;-0.697998;0.442383;-0.208496;0.584782;-0.336406;-0.712426;-0.193159
28808;9.432354;-1.123790;-2.371801;0.005946;0.012091;-0.002441;-0.700684;0.438965;-0.204346;0.584907;-0.336388;-0.712336;-0.193143
28809;9.444436;-1.106402;-2.369168;-0.003356;0.008949;-0.001642;-0.703857;0.438721;-0.201904;0.584942;-0.336407;-0.712285;-0.193192
28810;9.472904;-1.113432;-2.351736;-0.008421;0.017570;0.001049;-0.705566;0.437012;-0.198486;0.584988;-0.336457;-0.712195;-0.193299
28811;9.451052;-1.160106;-2.358553;-0.008370;0.015734;0.000554;-0.700195;0.432129;-0.206787;0.584988;-0.336502;-0.712142;-0.193416
28812;9.435995;-1.148224;-2.378537;-0.015694;0.011031;0.004326;-0.702393;0.435303;-0.199219;0.585028;-0.336534;-0.712066;-0.193517
28813;9.395973;-1.144929;-2.386628;-0.014066;0.005134;-0.002600;-0.703125;0.437744;-0.205811;0.584960;-0.336591;-0.712061;-0.193644
28814;9.425691;-1.176374;-2.385461;-0.013627;0.003846;-0.005031;-0.706543;0.438477;-0.199463;0.584933;-0.336623;-0.712035;-0.193765
28815;9.446220;-1.176580;-2.380068;-0.010146;0.009953;-0.004403;-0.705078;0.437744;-0.199951;0.584892;-0.336664;-0.712012;-0.193902
28816;9.437264;-1.196662;-2.344556;-0.006344;0.003360;-0.000300;-0.707520;0.436279;-0.211426;0.584839;-0.336714;-0.712013;-0.193971
28817;9.440471;-1.160873;-2.346710;-0.007667;0.003579;0.002097;-0.700928;0.433838;-0.204590;0.584868;-0.336714;-0.711973;-0.194030
28818;9.446915;-1.141295;-2.320218;-0.013675;0.009321;0.000358;-0.699463;0.435059;-0.201416;0.584879;-0.336742;-0.711921;-0.194138
28819;9.430233;-1.190137;-2.352863;-0.015077;0.012290;0.003500;-0.698486;0.447510;-0.205811;0.584891;-0.336819;-0.711846;-0.194246
28820;9.449170;-1.200474;-2.389946;-0.016558;0.009037;0.004044;-0.692627;0.432129;-0.199707;0.584920;-0.337009;-0.711710;-0.194326
28821;9.438673;-1.229907;-2.397099;-0.013054;0.010587;-0.000468;-0.700195;0.435791;-0.203125;0.584929;-0.337042;-0.711662;-0.194417
28822;9.428395;-1.224278;-2.346073;-0.002354;0.012458;-0.010845;-0.700928;0.434326;-0.204590;0.584964;-0.336965;-0.711641;-0.194519
28823;9.420528;-1.204202;-2.347732;0.006018;0.011036;-0.009614;-0.700928;0.441162;-0.203613;0.585025;-0.336838;-0.711640;-0.194563
28824;9.438182;-1.188245;-2.369537;0.008619;0.010741;-0.007462;-0.692383;0.433105;-0.203125;0.585087;-0.336782;-0.711612;-0.194575
28825;9.450313;-1.170761;-2.366653;0.007401;0.010928;-0.001163;-0.701904;0.436523;-0.193848;0.585179;-0.336711;-0.711579;-0.194542
28826;9.453900;-1.135027;-2.367198;0.003837;0.012905;-0.002605;-0.702393;0.427979;-0.209717;0.585168;-0.336708;-0.711576;-0.194591
28827;9.424154;-1.141345;-2.327936;-0.002089;0.010561;-0.003540;-0.697510;0.437500;-0.206299;0.585242;-0.336572;-0.711563;-0.194649
28828;9.457148;-1.137478;-2.328344;-0.001334;0.007243;-0.005607;-0.693115;0.435303;-0.200439;0.585286;-0.336544;-0.711530;-0.194687
28829;9.485307;-1.144168;-2.312069;-0.003590;0.002893;-0.001195;-0.697510;0.432861;-0.200684;0.585272;-0.336579;-0.711519;-0.194707
28830;9.474001;-1.160900;-2.312030;-0.001856;0.011279;-0.002431;-0.704590;0.435791;-0.202393;0.585300;-0.336552;-0.711495;-0.194761
28831;9.437263;-1.121873;-2.321987;0.000639;0.011014;-0.004180;-0.704590;0.431885;-0.200928;0.585321;-0.336510;-0.711480;-0.194826
28832;9.442433;-1.110724;-2.337605;0.003161;0.009832;-0.006178;-0.696045;0.435059;-0.198730;0.585326;-0.336417;-0.711502;-0.194888
28833;9.401675;-1.094939;-2.338182;0.006260;0.004727;-0.000501;-0.706055;0.438232;-0.202393;0.585329;-0.336412;-0.711508;-0.194868
28834;9.453477;-1.115051;-2.386593;-0.004403;-0.016005;0.002934;-0.700684;0.432129;-0.200928;0.585182;-0.336505;-0.711588;-0.194856
28835;9.487266;-1.137212;-2.404588;-0.012373;-0.000652;0.001303;-0.696045;0.436035;-0.205322;0.585109;-0.336558;-0.711603;-0.194930
28836;9.435322;-1.168478;-2.326339;-0.009934;0.002610;-0.006399;-0.703613;0.438477;-0.209473;0.585097;-0.336570;-0.711585;-0.195009
28837;9.449650;-1.187819;-2.346892;-0.004817;0.006468;-0.007795;-0.706543;0.440430;-0.195801;0.585130;-0.336529;-0.711556;-0.195087
28838;9.365127;-1.169845;-2.297865;0.002012;-0.009754;-0.007062;-0.706055;0.436279;-0.198486;0.584976;-0.336575;-0.711652;-0.195120
28839;9.481921;-1.217036;-2.409035;0.001608;-0.020050;-0.001775;-0.703125;0.439697;-0.197754;0.584792;-0.336615;-0.711793;-0.195091
28840;9.497198;-1.228526;-2.388182;0.010702;0.005515;-0.005473;-0.698730;0.432861;-0.200684;0.584785;-0.336590;-0.711810;-0.195090
28841;9.411463;-1.186195;-2.322380;0.021482;0.011917;-0.006795;-0.707520;0.433594;-0.203125;0.584879;-0.336418;-0.711831;-0.195026
28842;9.434366;-1.138786;-2.311131;0.021149;0.005893;-0.010253;-0.704590;0.433838;-0.203857;0.584921;-0.336220;-0.711902;-0.194985
28843;9.433064;-1.112702;-2.295489;0.018816;0.000654;-0.009993;-0.706055;0.428711;-0.201172;0.584938;-0.336051;-0.711982;-0.194932
28844;9.421366;-1.111342;-2.386236;0.015466;-0.019786;-0.008506;-0.696533;0.433594;-0.204346;0.584804;-0.335903;-0.712186;-0.194842
28845;9.510907;-1.129538;-2.462649;0.005371;-0.013370;-0.006968;-0.688477;0.433594;-0.195312;0.584734;-0.335855;-0.712281;-0.194790
28846;9.423988;-1.160196;-2.418948;0.005738;0.001482;-0.007121;-0.702148;0.439697;-0.200928;0.584710;-0.335850;-0.712304;-0.194784
28847;9.433223;-1.104338;-2.395905;-0.000934;-0.002878;-0.004432;-0.693848;0.429199;-0.200684;0.584648;-0.335903;-0.712322;-0.194817
28848;9.455059;-1.130269;-2.406175;-0.002240;0.001755;-0.003841;-0.704590;0.430908;-0.199707;0.584635;-0.335865;-0.712345;-0.194834
28849;9.452080;-1.130832;-2.345555;-0.000034;0.002605;-0.006203;-0.705322;0.430420;-0.205811;0.584593;-0.335804;-0.712395;-0.194885
28850;9.455318;-1.146273;-2.317198;0.001767;-0.001506;-0.004827;-0.701172;0.434326;-0.202393;0.584576;-0.335708;-0.712453;-0.194889
28851;9.462208;-1.138897;-2.299403;0.002398;-0.005570;-0.004096;-0.702393;0.435059;-0.214111;0.584524;-0.335692;-0.712506;-0.194880
28852;9.451151;-1.116348;-2.339533;-0.003473;-0.006110;-0.000630;-0.703613;0.436523;-0.205811;0.584540;-0.335660;-0.712516;-0.194850
28853;9.427728;-1.098654;-2.372974;-0.003376;-0.000805;0.001716;-0.696533;0.441650;-0.198975;0.584528;-0.335695;-0.712508;-0.194856
28854;9.434685;-1.126236;-2.412854;-0.006022;-0.004011;0.001615;-0.702148;0.432861;-0.207520;0.584460;-0.335851;-0.712484;-0.194876
28855;9.423647;-1.156023;-2.422274;-0.005652;-0.007878;0.001484;-0.702393;0.439941;-0.201172;0.584417;-0.335863;-0.712517;-0.194866
28856;9.438744;-1.167704;-2.402099;-0.005515;-0.012465;0.000245;-0.697021;0.436279;-0.204346;0.584299;-0.335976;-0.712558;-0.194872
28857;9.437507;-1.154817;-2.396522;-0.007966;-0.008704;-0.000056;-0.695068;0.434326;-0.201904;0.584236;-0.336050;-0.712574;-0.194878
28858;9.451952;-1.153638;-2.368516;-0.009245;-0.004989;0.000290;-0.702637;0.426758;-0.200684;0.584181;-0.336123;-0.712579;-0.194900
28859;9.456475;-1.142846;-2.386429;-0.008058;-0.000621;-0.000867;-0.699707;0.427979;-0.201660;0.584126;-0.336092;-0.712624;-0.194950
28860;9.446405;-1.185283;-2.402590;-0.005294;-0.002773;0.004692;-0.707031;0.435303;-0.201416;0.584091;-0.336097;-0.712654;-0.194940
28861;9.418995;-1.156837;-2.368289;0.001802;-0.004111;0.001374;-0.707031;0.433105;-0.196045;0.584040;-0.336109;-0.712694;-0.194925
28862;9.424177;-1.159164;-2.393917;0.005341;-0.008809;-0.001832;-0.703613;0.438477;-0.205322;0.583929;-0.336103;-0.712792;-0.194909
28863;9.464136;-1.109720;-2.416596;0.005385;-0.005312;-0.003883;-0.709961;0.432129;-0.197266;0.583912;-0.336080;-0.712826;-0.194874
28864;9.450911;-1.101086;-2.403183;0.004465;-0.000131;-0.005223;-0.702393;0.441162;-0.196533;0.583848;-0.336022;-0.712898;-0.194904
28865;9.437840;-1.092488;-2.389146;-0.000865;0.003346;-0.001837;-0.710449;0.430664;-0.198975;0.583810;-0.336108;-0.712876;-0.194950
28866;9.424706;-1.083952;-2.375325;-0.004367;-0.001848;-0.002219;-0.702637;0.431152;-0.204834;0.583729;-0.336087;-0.712938;-0.195004
28867;9.447079;-1.122856;-2.393917;-0.010432;-0.009359;0.001448;-0.705322;0.427979;-0.205078;0.583653;-0.336115;-0.712982;-0.195018
28868;9.431170;-1.110681;-2.417394;-0.013972;-0.008304;-0.000242;-0.696289;0.435791;-0.201904;0.583567;-0.336112;-0.713040;-0.195066
28869;9.468226;-1.148750;-2.406957;-0.015431;-0.003502;0.003397;-0.697021;0.430420;-0.202148;0.583515;-0.336238;-0.713012;-0.195113
28870;9.453357;-1.115458;-2.378641;-0.010165;0.003831;0.003849;-0.699951;0.436768;-0.194092;0.583522;-0.336273;-0.712981;-0.195143
28871;9.433312;-1.114125;-2.382701;-0.005205;0.004222;0.000594;-0.699951;0.442383;-0.204102;0.583476;-0.336368;-0.712957;-0.195204
28872;9.412423;-1.100083;-2.379571;-0.002755;0.000461;0.000891;-0.701660;0.435547;-0.207520;0.583485;-0.336448;-0.712911;-0.195206
28873;9.450355;-1.099114;-2.406272;-0.002674;-0.002291;0.000146;-0.705566;0.433105;-0.209473;0.583495;-0.336442;-0.712910;-0.195190
28874;9.441877;-1.132554;-2.379261;-0.002755;0.000461;0.000892;-0.693359;0.432373;-0.195557;0.583525;-0.336397;-0.712909;-0.195181
28875;9.433985;-1.126896;-2.390546;-0.003420;-0.004306;0.003766;-0.705322;0.425781;-0.195312;0.583468;-0.336474;-0.712925;-0.195165
28876;9.416560;-1.090191;-2.398521;-0.005446;-0.006246;0.002838;-0.705322;0.428223;-0.200195;0.583360;-0.336479;-0.713005;-0.195187
28877;9.454206;-1.089531;-2.426182;-0.004249;-0.007210;0.003235;-0.700439;0.439941;-0.204102;0.583285;-0.336474;-0.713071;-0.195179
28878;9.477290;-1.055192;-2.424529;-0.006610;0.003551;-0.001159;-0.701660;0.436035;-0.200439;0.583300;-0.336523;-0.713025;-0.195215
28879;9.427887;-1.072800;-2.398635;-0.002009;0.002477;-0.002728;-0.705078;0.436035;-0.188232;0.583291;-0.336529;-0.713021;-0.195244
28880;9.420888;-1.079200;-2.417200;-0.012678;-0.003964;0.002503;-0.703857;0.441162;-0.204346;0.583131;-0.336699;-0.713042;-0.195351
28881;9.437721;-1.116108;-2.411467;-0.015920;-0.009358;0.002976;-0.702148;0.424805;-0.203857;0.583045;-0.336844;-0.713032;-0.195397
28882;9.421193;-1.143374;-2.396628;-0.015904;-0.004941;0.001178;-0.702637;0.433105;-0.197510;0.582985;-0.336825;-0.713076;-0.195447
28883;9.446034;-1.185718;-2.379338;-0.018931;0.001052;-0.000339;-0.703613;0.434326;-0.198486;0.582906;-0.336916;-0.713064;-0.195571
28884;9.426698;-1.196402;-2.391442;-0.006917;0.000249;0.000030;-0.702148;0.433594;-0.205811;0.582863;-0.336953;-0.713069;-0.195618
28885;9.438260;-1.179226;-2.390526;0.007880;-0.001931;-0.000743;-0.700928;0.440430;-0.200439;0.582900;-0.336866;-0.713101;-0.195539
28886;9.421055;-1.142322;-2.397673;0.017965;-0.003006;-0.003849;-0.701904;0.425537;-0.202148;0.582921;-0.336807;-0.713140;-0.195435
28887;9.437118;-1.115093;-2.414293;0.020911;-0.006250;-0.001586;-0.709473;0.441650;-0.197266;0.582943;-0.336616;-0.713254;-0.195283
28888;9.435288;-1.090204;-2.400244;0.014695;-0.007485;-0.003128;-0.695557;0.441895;-0.203125;0.582887;-0.336604;-0.713325;-0.195216
28889;9.427363;-1.084343;-2.411704;0.013127;-0.002654;-0.003389;-0.706299;0.435547;-0.196777;0.582928;-0.336577;-0.713331;-0.195115
28890;9.416566;-1.113821;-2.420287;0.006597;-0.001856;-0.005292;-0.703857;0.442139;-0.206787;0.582883;-0.336540;-0.713385;-0.195115
28891;9.417302;-1.125976;-2.428142;0.001718;-0.005001;-0.002782;-0.708252;0.436035;-0.202637;0.582882;-0.336546;-0.713392;-0.195082
28892;9.427927;-1.095855;-2.420521;-0.002855;-0.004844;-0.001459;-0.705078;0.432861;-0.196289;0.582832;-0.336552;-0.713427;-0.195095
28893;9.440110;-1.091205;-2.427739;-0.001160;-0.005288;0.000906;-0.702881;0.426758;-0.196777;0.582757;-0.336577;-0.713475;-0.195098
28894;9.435260;-1.101783;-2.411357;0.000038;-0.006252;0.001302;-0.701660;0.441162;-0.199219;0.582688;-0.336552;-0.713548;-0.195080
28895;9.438908;-1.130938;-2.391779;0.002225;-0.009815;0.000737;-0.696777;0.432861;-0.205322;0.582625;-0.336620;-0.713581;-0.195032
28896;9.419149;-1.142148;-2.405230;0.001466;-0.010137;-0.002091;-0.700684;0.437988;-0.191162;0.582603;-0.336582;-0.713635;-0.194965
28897;9.436571;-1.139766;-2.437683;-0.000845;-0.007322;0.001268;-0.694580;0.422363;-0.203857;0.582500;-0.336683;-0.713672;-0.194965
28898;9.448711;-1.135411;-2.444922;-0.000305;-0.003301;0.001188;-0.700928;0.435303;-0.200928;0.582516;-0.336586;-0.713720;-0.194906
28899;9.433942;-1.102011;-2.416404;-0.006349;0.003352;-0.000294;-0.707275;0.434082;-0.197754;0.582520;-0.336611;-0.713697;-0.194939
28900;9.405394;-1.134078;-2.393709;-0.003995;-0.002076;0.002546;-0.710449;0.434814;-0.199707;0.582466;-0.336650;-0.713716;-0.194958
28901;9.415954;-1.190890;-2.413756;-0.000257;-0.014889;0.004040;-0.707764;0.440430;-0.196045;0.582356;-0.336691;-0.713800;-0.194912
28902;9.425235;-1.149166;-2.400482;-0.000852;-0.017075;0.004617;-0.700684;0.432861;-0.194092;0.582218;-0.336805;-0.713871;-0.194865
28903;9.465564;-1.113193;-2.431599;-0.001878;-0.008223;0.004277;-0.702637;0.441650;-0.195801;0.582134;-0.336870;-0.713916;-0.194839
28904;9.439770;-1.110043;-2.412206;-0.001267;-0.001619;0.001901;-0.699951;0.434570;-0.189697;0.582096;-0.336960;-0.713905;-0.194839
28905;9.407775;-1.126090;-2.418472;-0.005157;-0.007365;0.003453;-0.705811;0.436768;-0.192139;0.581984;-0.337069;-0.713941;-0.194852
28906;9.441300;-1.096498;-2.467206;-0.005131;-0.008282;0.003204;-0.698975;0.441406;-0.191895;0.581869;-0.337171;-0.713982;-0.194868
28907;9.402186;-1.084933;-2.434789;-0.009240;-0.010329;0.001848;-0.708008;0.436768;-0.195068;0.581743;-0.337336;-0.713998;-0.194897
28908;9.430615;-1.104583;-2.428186;-0.014086;-0.004637;0.000766;-0.702881;0.432373;-0.185303;0.581637;-0.337439;-0.714014;-0.194982
28909;9.424979;-1.102317;-2.404636;-0.017320;-0.006394;0.006141;-0.710205;0.437988;-0.196777;0.581476;-0.337606;-0.714043;-0.195066
28910;9.440979;-1.127218;-2.391549;-0.020485;-0.005568;0.009220;-0.702881;0.437744;-0.194092;0.581368;-0.337787;-0.714024;-0.195145
28911;9.429833;-1.157584;-2.400947;-0.018099;-0.002161;0.008462;-0.707764;0.439453;-0.202148;0.581288;-0.337964;-0.713986;-0.195213
28912;9.447311;-1.155440;-2.432889;-0.011745;-0.004732;0.002052;-0.697510;0.437744;-0.200195;0.581237;-0.338047;-0.713976;-0.195259
28913;9.447150;-1.155140;-2.433657;-0.001331;-0.003422;-0.002502;-0.704346;0.440186;-0.200195;0.581228;-0.338058;-0.713981;-0.195248
28914;9.423765;-1.136765;-2.466491;0.000506;0.001303;-0.004728;-0.701660;0.437012;-0.199463;0.581233;-0.338049;-0.713975;-0.195268
28915;9.418531;-1.134036;-2.441635;-0.000788;0.000599;-0.002578;-0.705078;0.428955;-0.188721;0.581236;-0.338042;-0.713974;-0.195276
28916;9.410699;-1.127722;-2.452807;0.000777;-0.004235;-0.002324;-0.710938;0.431396;-0.192383;0.581148;-0.338007;-0.714060;-0.195284
28917;9.408797;-1.102182;-2.439485;0.000032;-0.015229;-0.002061;-0.700684;0.428467;-0.197510;0.581001;-0.337995;-0.714189;-0.195271
28918;9.416065;-1.107662;-2.430891;-0.000520;-0.013913;-0.003531;-0.699219;0.434570;-0.199463;0.580912;-0.337940;-0.714298;-0.195231
28919;9.456713;-1.035717;-2.404285;-0.002861;-0.013035;-0.011515;-0.703125;0.429199;-0.201416;0.580824;-0.337892;-0.714390;-0.195243
28920;9.544559;-0.940092;-2.438692;-0.014134;-0.009430;-0.022179;-0.705566;0.427734;-0.190430;0.580712;-0.337771;-0.714500;-0.195381
28921;9.551344;-0.875734;-2.452984;-0.027191;-0.011604;-0.037814;-0.694336;0.438965;-0.188965;0.580457;-0.337666;-0.714668;-0.195708
28922;9.599736;-0.784707;-2.504293;-0.033864;-0.014417;-0.048514;-0.704102;0.438232;-0.196289;0.580167;-0.337649;-0.714801;-0.196107
28923;9.652030;-0.679952;-2.575398;-0.038866;-0.042901;-0.073395;-0.706787;0.431885;-0.191162;0.579678;-0.337498;-0.715143;-0.196569
28924;9.744002;-0.537518;-2.583125;-0.022274;-0.058130;-0.128515;-0.697266;0.431885;-0.190918;0.579024;-0.336936;-0.715771;-0.197171
28925;9.732626;-0.438457;-2.427208;0.004362;-0.056874;-0.200911;-0.701904;0.428467;-0.185059;0.578359;-0.335835;-0.716612;-0.197944
28926;9.659930;-0.353782;-2.441353;0.017573;-0.098302;-0.267038;-0.709717;0.431152;-0.195068;0.577336;-0.334356;-0.717873;-0.198866
28927;9.752892;-0.283153;-2.460696;0.021176;-0.156165;-0.327901;-0.706299;0.421143;-0.193115;0.575922;-0.332574;-0.719553;-0.199879
28928;9.779775;-0.216556;-2.584228;0.026340;-0.157828;-0.388292;-0.718262;0.414307;-0.184082;0.574418;-0.330365;-0.721423;-0.201129
28929;9.656444;-0.032838;-2.478358;0.044657;-0.150614;-0.443352;-0.721680;0.412842;-0.186768;0.572847;-0.327726;-0.723464;-0.202590
28930;9.481077;0.332088;-2.560121;0.066288;-0.149684;-0.492260;-0.726562;0.411133;-0.182861;0.571272;-0.324695;-0.725635;-0.204147
28931;9.264783;0.778196;-2.517958;0.116152;-0.169233;-0.563932;-0.720703;0.402588;-0.179932;0.569562;-0.321067;-0.728150;-0.205701
28932;8.941327;1.196061;-2.522618;0.115462;-0.198604;-0.661968;-0.726562;0.385742;-0.179688;0.567498;-0.316899;-0.731035;-0.207627
28933;8.465472;1.577130;-2.625633;0.014573;-0.268893;-0.763203;-0.743896;0.387939;-0.175049;0.564548;-0.312619;-0.734348;-0.210447
28934;8.150876;1.717744;-2.595443;-0.142505;-0.384409;-0.855640;-0.739746;0.375244;-0.170166;0.560255;-0.308791;-0.738105;-0.214390
28935;7.863034;1.044063;-2.412610;-0.425937;-0.474804;-0.955844;-0.749512;0.363770;-0.164795;0.554479;-0.305797;-0.741970;-0.220276
28936;7.400807;0.413229;-3.161945;-0.902412;-0.510071;-0.880012;-0.757324;0.352539;-0.151611;0.547361;-0.305484;-0.744847;-0.228646
28937;8.351334;0.311865;-3.687595;-0.962391;-0.538325;-0.668578;-0.758057;0.354248;-0.145020;0.540239;-0.306753;-0.747125;-0.236324
28938;9.982936;-0.881129;-3.382336;-0.700767;-0.463390;-0.440197;-0.767578;0.348389;-0.126953;0.534695;-0.308150;-0.748879;-0.241506
28939;11.248291;-2.897031;-2.962885;-0.393022;-0.292645;-0.231880;-0.769531;0.331543;-0.120850;0.531347;-0.309117;-0.749966;-0.244270
28940;11.418298;-3.481043;-2.970793;0.078797;-0.025475;-0.050173;-0.762939;0.343994;-0.119385;0.531249;-0.308447;-0.750412;-0.243960
28941;10.711652;-2.548505;-2.536902;0.537770;0.159757;0.047500;-0.763672;0.335205;-0.132568;0.533689;-0.306109;-0.750662;-0.240792
28942;10.146525;-0.984052;-2.180791;0.877390;0.194500;0.082965;-0.762939;0.338867;-0.131104;0.537308;-0.302305;-0.751320;-0.235436
28943;9.845619;0.281908;-2.136911;1.036589;0.204782;0.141675;-0.760254;0.342285;-0.146240;0.541423;-0.298173;-0.752064;-0.228808
28944;9.586620;0.921432;-2.103131;0.984346;0.223493;0.155465;-0.764404;0.336182;-0.159424;0.545552;-0.294333;-0.752489;-0.222487
28945;9.263044;1.223535;-1.976973;0.740084;0.267623;0.076293;-0.758057;0.335693;-0.167480;0.549197;-0.290947;-0.752413;-0.218190
28946;8.690325;1.320715;-2.169428;0.358521;0.248273;-0.039676;-0.756592;0.333740;-0.170898;0.551581;-0.288619;-0.751978;-0.216762
28947;8.142638;1.347687;-3.066022;-0.010501;0.083231;-0.087606;-0.760010;0.331055;-0.164551;0.551945;-0.287984;-0.751751;-0.217468
28948;8.563530;1.263226;-3.712482;-0.216395;-0.069422;-0.084364;-0.756836;0.334717;-0.157227;0.550816;-0.288577;-0.751889;-0.219062
28949;8.990759;1.300762;-3.928373;-0.444625;-0.122917;-0.062163;-0.764893;0.328125;-0.160156;0.548816;-0.290495;-0.751805;-0.221818
28950;9.802619;1.514779;-4.323048;-0.735867;0.071860;0.015276;-0.769775;0.337158;-0.151367;0.547483;-0.293787;-0.750079;-0.226566
28951;8.238955;1.091834;-4.053109;-0.861236;0.012199;0.141002;-0.767090;0.344238;-0.145752;0.545642;-0.298592;-0.748065;-0.231337
28952;9.191460;0.273290;-4.089358;-0.718499;-0.124658;0.236496;-0.761475;0.343262;-0.146240;0.543460;-0.303620;-0.746670;-0.234416
28953;9.715917;-0.872430;-3.892598;-0.410756;-0.098871;0.328805;-0.759766;0.353271;-0.140625;0.542421;-0.307724;-0.745479;-0.235257
28954;9.934046;-1.331173;-3.652898;-0.050133;-0.061220;0.423707;-0.756836;0.359863;-0.141357;0.542707;-0.310751;-0.744569;-0.233496
28955;9.891993;-1.098677;-3.361044;0.293799;0.001954;0.486948;-0.762451;0.363770;-0.140381;0.544401;-0.312495;-0.743851;-0.229477
28956;9.577434;-0.587417;-2.952821;0.525606;0.048183;0.486574;-0.754395;0.369385;-0.155273;0.546941;-0.313056;-0.743382;-0.224131
28957;9.301206;-0.062891;-2.772474;0.636830;0.100104;0.437496;-0.750244;0.372314;-0.153809;0.550045;-0.312724;-0.742903;-0.218515
28958;9.121575;0.275013;-2.706364;0.684332;0.164272;0.389158;-0.750732;0.382324;-0.156982;0.553527;-0.311730;-0.742354;-0.212936
28959;9.117667;0.412409;-2.801498;0.677822;0.232558;0.354113;-0.744141;0.376221;-0.167969;0.557307;-0.310460;-0.741544;-0.207693
28960;9.046307;0.548246;-2.956460;0.596436;0.271194;0.335275;-0.749268;0.377197;-0.177734;0.561086;-0.309315;-0.740422;-0.203182
28961;9.067703;0.888892;-3.089858;0.438452;0.257228;0.332460;-0.739990;0.379639;-0.178223;0.564346;-0.308890;-0.739078;-0.199663
28962;9.142547;1.193460;-3.207494;0.240370;0.225032;0.366375;-0.740234;0.379883;-0.185791;0.566929;-0.309643;-0.737482;-0.197059
28963;9.017754;1.282095;-3.309012;0.103238;0.201588;0.420776;-0.727539;0.394531;-0.191162;0.569104;-0.311389;-0.735610;-0.195028
28964;8.866825;1.023820;-3.337814;0.058113;0.170434;0.462489;-0.730957;0.391846;-0.187256;0.571054;-0.313752;-0.733634;-0.192972
28965;8.840533;0.709862;-3.279259;0.063710;0.141906;0.474402;-0.724854;0.401367;-0.185303;0.572813;-0.316104;-0.731839;-0.190725
28966;8.843974;0.580027;-3.221259;0.076528;0.121401;0.481126;-0.726074;0.404297;-0.193604;0.574465;-0.318487;-0.730146;-0.188260
28967;8.911142;0.539723;-3.111713;0.073236;0.107015;0.515871;-0.717285;0.407959;-0.193115;0.576086;-0.321105;-0.728380;-0.185685
28968;8.966442;0.709957;-2.848943;0.052271;0.111413;0.558389;-0.705322;0.418701;-0.190186;0.577731;-0.324052;-0.726444;-0.183019
28969;9.124202;0.648245;-2.554921;0.048431;0.118797;0.583675;-0.712646;0.427246;-0.200684;0.579424;-0.327194;-0.724386;-0.180213
28970;9.005842;0.531453;-2.691431;0.042995;0.100337;0.605064;-0.706787;0.430908;-0.192871;0.581029;-0.330521;-0.722286;-0.177380
28971;9.059037;-0.070797;-2.906469;0.122713;0.095882;0.609983;-0.702393;0.432861;-0.194092;0.582778;-0.333441;-0.720366;-0.173952
28972;9.125426;-0.316264;-2.802278;0.234690;0.039017;0.578192;-0.701172;0.438477;-0.205811;0.584433;-0.335661;-0.718972;-0.169850
28973;8.797953;0.434681;-3.571971;0.239188;0.029429;0.538978;-0.693359;0.452881;-0.205566;0.586014;-0.337639;-0.717664;-0.165968
28974;8.768033;0.612214;-3.674373;0.258337;0.070128;0.523563;-0.685791;0.456055;-0.203613;0.587846;-0.339447;-0.716190;-0.162122
28975;9.168834;0.497714;-3.623297;0.277817;0.037449;0.527548;-0.683350;0.459229;-0.209473;0.589513;-0.341207;-0.714902;-0.158011
28976;9.582627;0.058822;-3.767318;0.368353;-0.000829;0.529749;-0.685303;0.460693;-0.210693;0.591211;-0.342561;-0.713884;-0.153271
28977;9.866690;0.022538;-4.057963;0.499343;-0.014396;0.526585;-0.678955;0.468506;-0.208740;0.593163;-0.343208;-0.713123;-0.147723
28978;10.652486;0.843387;-4.382763;0.674637;0.018472;0.448803;-0.670898;0.463379;-0.217773;0.595663;-0.342505;-0.712625;-0.141568
28979;11.732019;1.945009;-4.832980;0.818611;0.129229;0.302231;-0.672607;0.465820;-0.226074;0.599061;-0.340026;-0.712119;-0.135626
28980;12.902894;3.049469;-5.371374;0.734281;0.233062;0.199691;-0.676270;0.466064;-0.241211;0.602683;-0.337231;-0.711258;-0.130998
28981;12.678011;4.070575;-4.661223;0.338446;0.338141;0.107739;-0.670410;0.471191;-0.250000;0.605719;-0.335740;-0.709654;-0.129517
28982;11.850118;4.321711;-4.166561;-0.088428;0.288971;-0.100225;-0.674805;0.469727;-0.246094;0.607051;-0.335285;-0.708366;-0.131494
28983;10.239028;3.663507;-3.546726;-0.364836;0.247023;-0.448810;-0.680664;0.463867;-0.248779;0.606929;-0.334189;-0.707996;-0.136736
28984;8.185723;3.390711;-2.021247;-0.396218;0.204565;-0.902620;-0.678955;0.458008;-0.247314;0.605930;-0.330570;-0.709037;-0.144355
28985;6.116334;2.935763;-1.939257;-0.510555;0.139786;-1.355483;-0.690674;0.443848;-0.243652;0.603628;-0.324955;-0.711399;-0.154754
28986;5.149392;2.082441;-2.382260;-0.613083;-0.018979;-1.688829;-0.702881;0.424072;-0.234375;0.599550;-0.318009;-0.715212;-0.166979
28987;6.482936;0.621107;-3.016681;-0.902750;-0.362089;-1.952670;-0.708008;0.412842;-0.219727;0.592101;-0.311301;-0.720865;-0.181276
28988;11.193210;-0.372538;-2.982611;-0.895175;-0.488709;-2.334427;-0.724365;0.379395;-0.206543;0.583084;-0.302468;-0.727811;-0.197020
28989;14.403888;-1.609932;-3.726171;-0.644699;-0.266284;-2.546617;-0.746826;0.349609;-0.203125;0.575422;-0.290530;-0.734326;-0.212717
28990;13.001417;-1.044445;-4.038268;-0.462343;-0.033614;-2.440841;-0.759766;0.320801;-0.209473;0.569555;-0.277776;-0.739462;-0.227252
28991;12.164808;-1.397437;-3.619991;-0.237039;-0.306929;-2.328828;-0.771729;0.290771;-0.183594;0.562554;-0.265045;-0.745709;-0.239172
28992;11.810212;-0.665152;-2.669287;-0.545670;-0.477099;-2.286709;-0.792969;0.264893;-0.190186;0.553559;-0.254259;-0.751862;-0.252246
28993;11.882528;-0.195348;-2.424442;-0.993420;-0.507517;-2.223446;-0.802246;0.239746;-0.172852;0.543400;-0.245868;-0.756701;-0.267711
28994;11.526347;1.057810;-3.013040;-1.409552;-0.399411;-2.008263;-0.806641;0.218994;-0.158447;0.533277;-0.240399;-0.759378;-0.284901
28995;10.864864;1.812816;-3.107858;-1.703947;-0.324424;-1.744763;-0.805664;0.191650;-0.156250;0.523417;-0.237675;-0.760170;-0.302799
28996;10.589490;1.755927;-3.371468;-1.978564;-0.381708;-1.507591;-0.811279;0.183838;-0.143799;0.513091;-0.237577;-0.759694;-0.321186
28997;10.295740;1.678693;-3.487253;-2.230476;-0.363629;-1.315037;-0.823975;0.172363;-0.123047;0.502642;-0.239742;-0.757698;-0.340247
28998;9.836893;1.379574;-3.266451;-2.329860;-0.266958;-1.171416;-0.821533;0.153809;-0.119141;0.492703;-0.242846;-0.754443;-0.359284
28999;8.949064;0.979279;-3.197795;-2.239106;-0.305034;-1.079179;-0.826172;0.146240;-0.114258;0.482817;-0.246036;-0.751073;-0.377152
29000;8.006276;0.382863;-3.297800;-1.970560;-0.429559;-1.019258;-0.828613;0.134277;-0.094482;0.472730;-0.248846;-0.748574;-0.392732
29001;7.649003;-0.375201;-3.313366;-1.588196;-0.610082;-0.969052;-0.822998;0.122070;-0.091553;0.462263;-0.250982;-0.747779;-0.405152
29002;7.531413;-0.815396;-2.634325;-1.265777;-0.712639;-0.813095;-0.837158;0.113525;-0.077148;0.452328;-0.253101;-0.747890;-0.414728
29003;7.379859;-0.738294;-1.995978;-1.105953;-0.792724;-0.583689;-0.835449;0.106689;-0.061035;0.442926;-0.256272;-0.748277;-0.422164
29004;6.922379;-0.780735;-2.055463;-0.952462;-0.819505;-0.328240;-0.841309;0.098633;-0.045410;0.434501;-0.260556;-0.748672;-0.427563
29005;6.490991;-0.953155;-2.138544;-0.720651;-0.761760;-0.121365;-0.835449;0.095215;-0.040527;0.427617;-0.264981;-0.749219;-0.430812
29006;6.321701;-0.890308;-2.007208;-0.472516;-0.621012;0.037118;-0.825195;0.103516;-0.032959;0.422764;-0.268942;-0.749700;-0.432307
29007;6.432093;-0.362819;-1.587859;-0.223185;-0.478278;0.193439;-0.831299;0.108887;-0.029785;0.419925;-0.272643;-0.750118;-0.432033
29008;6.276797;0.501910;-1.124055;0.045122;-0.356967;0.362095;-0.837402;0.109375;-0.017822;0.419098;-0.276011;-0.750641;-0.429782
29009;6.585450;1.628881;-0.363723;0.224670;-0.193044;0.544765;-0.826904;0.117676;-0.018311;0.420286;-0.279249;-0.750899;-0.426064
29010;7.682166;3.640602;-0.274210;0.143644;0.008087;0.747226;-0.831787;0.125000;-0.018555;0.423270;-0.283357;-0.749617;-0.422642
29011;7.646872;6.379617;-0.584493;-0.068639;0.150574;0.805031;-0.822754;0.134766;-0.023682;0.426829;-0.287988;-0.746940;-0.420667
29012;7.089210;9.141063;-1.733240;-0.208938;0.168713;0.621709;-0.824219;0.145752;-0.015381;0.429531;-0.291899;-0.744072;-0.420303
29013;6.577737;11.786057;-7.481370;0.201061;-0.357153;0.194620;-0.825195;0.147705;-0.023193;0.428348;-0.293646;-0.745624;-0.417535
29014;8.429568;10.881431;-10.071297;0.779694;-1.074535;-0.226470;-0.819336;0.140381;-0.005127;0.422768;-0.293060;-0.752625;-0.411021
29015;9.646280;8.691549;-6.731383;0.563138;-1.052420;-0.307705;-0.824463;0.135498;0.012207;0.416391;-0.292643;-0.758973;-0.406126
29016;8.875432;8.500358;-3.328845;0.213613;-0.759493;-0.369544;-0.826904;0.130859;0.018066;0.410721;-0.292039;-0.763260;-0.404296
29017;9.421421;7.003083;-4.241380;0.281512;-0.812499;-0.360634;-0.831299;0.122314;0.039307;0.404938;-0.291386;-0.767850;-0.401904
29018;15.389579;3.033670;-4.719708;0.328937;-1.020766;0.263099;-0.823242;0.126953;0.047119;0.399858;-0.295274;-0.771834;-0.396484
29019;22.061160;3.752043;-0.275520;-0.360564;0.063615;1.224504;-0.822021;0.140137;0.032471;0.403260;-0.304038;-0.767418;-0.394984
29020;16.700087;10.525694;-3.103356;-1.568142;1.711522;0.869697;-0.811523;0.157227;0.022461;0.413074;-0.308870;-0.754064;-0.406640
29021;8.854517;7.365571;-3.534126;-3.086783;0.369852;-0.494256;-0.816406;0.147949;0.032715;0.405538;-0.315030;-0.743284;-0.428746
29022;7.073468;-5.088521;3.884892;-3.575345;-0.206351;-0.374389;-0.816162;0.135254;0.037109;0.393154;-0.325435;-0.731861;-0.451554
29023;4.150507;-10.831991;-0.785532;-0.869842;0.200270;0.278235;-0.813965;0.145508;0.035889;0.392962;-0.329090;-0.727120;-0.456703
29024;4.151114;-12.339369;-4.431692;2.672523;0.082455;1.012564;-0.808594;0.168213;0.022705;0.404469;-0.326054;-0.733975;-0.437464
29025;4.289410;-8.205900;-6.918736;4.088727;-0.055928;1.609195;-0.797852;0.180664;0.015381;0.420860;-0.322130;-0.744095;-0.406733
29026;14.110537;0.097728;-7.722581;3.684491;-0.561622;1.481177;-0.798096;0.199463;0.020020;0.432004;-0.320093;-0.754125;-0.377105
29027;16.970897;5.922024;-4.765082;3.035444;0.155961;0.745058;-0.798096;0.212646;0.003662;0.443129;-0.313276;-0.760900;-0.355705
29028;8.936612;6.843390;-2.114100;1.854909;0.614516;0.454942;-0.797852;0.216309;-0.007568;0.453086;-0.307441;-0.762849;-0.343882
29029;6.722305;3.351467;-2.547416;0.770593;0.303159;0.596423;-0.791748;0.220459;-0.017090;0.458589;-0.307442;-0.762385;-0.337557
29030;7.392725;1.343786;-3.865418;0.400899;0.028467;0.882172;-0.786865;0.244141;-0.028564;0.462210;-0.311392;-0.761129;-0.331783
29031;9.036966;1.094093;-4.657879;0.231594;0.028195;1.227345;-0.782471;0.250732;-0.027344;0.466371;-0.318210;-0.758397;-0.325691
29032;9.095116;0.541454;-4.506347;0.244932;0.205053;1.426059;-0.778320;0.266357;-0.013672;0.472139;-0.325663;-0.754418;-0.319189
29033;8.271866;-0.075982;-4.054742;0.345038;0.170823;1.383315;-0.768066;0.284180;-0.036621;0.477704;-0.332553;-0.750893;-0.312037
29034;8.603463;-0.554792;-3.424521;0.462267;0.052373;1.272082;-0.761963;0.307617;-0.030762;0.482586;-0.338489;-0.748306;-0.304259
29035;9.481418;-0.380842;-3.538177;0.656753;0.055684;1.259726;-0.743408;0.320557;-0.035400;0.487909;-0.343561;-0.746153;-0.295240
29036;9.477225;-0.312380;-3.261406;0.822235;0.194955;1.239281;-0.736084;0.328613;-0.044922;0.494455;-0.347438;-0.743785;-0.285631
29037;8.774899;0.096066;-3.125443;0.897590;0.261821;1.154802;-0.752197;0.345215;-0.061279;0.501362;-0.350249;-0.741451;-0.276066
29038;8.247944;0.603148;-3.076870;0.876383;0.251429;1.058313;-0.739990;0.355469;-0.057617;0.507853;-0.352518;-0.739286;-0.266969
29039;8.365473;0.783024;-3.046498;0.841198;0.250614;1.003706;-0.721924;0.362061;-0.065674;0.514039;-0.354567;-0.737117;-0.258272
29040;8.439115;0.836258;-3.263994;0.840724;0.299884;0.979167;-0.729492;0.392578;-0.080566;0.520413;-0.356318;-0.734717;-0.249798
29041;8.350110;0.743218;-3.260255;0.895631;0.340222;0.931299;-0.714844;0.395264;-0.082275;0.527035;-0.357411;-0.732308;-0.241279
29042;8.521787;0.745012;-2.857056;0.963365;0.336365;0.853183;-0.711670;0.396240;-0.101562;0.533611;-0.357695;-0.730196;-0.232652
29043;8.836525;1.189144;-2.562681;0.963216;0.326297;0.755303;-0.697998;0.401123;-0.097168;0.539876;-0.357359;-0.728331;-0.224415
29044;8.474112;1.790563;-2.400264;0.823912;0.323730;0.710468;-0.697998;0.409180;-0.121094;0.545569;-0.357352;-0.726278;-0.217195
29045;8.255505;2.672421;-2.537324;0.645013;0.278576;0.744331;-0.682617;0.425049;-0.117920;0.550477;-0.358413;-0.723944;-0.210759
29046;8.750478;3.284119;-2.918770;0.439565;0.244836;0.781380;-0.688721;0.425049;-0.111084;0.554594;-0.360681;-0.721245;-0.205279
29047;8.744723;2.973507;-3.256425;0.239348;0.226456;0.872592;-0.659912;0.433594;-0.130615;0.558120;-0.364433;-0.717968;-0.200531
29048;8.790966;2.405338;-3.809232;0.147550;0.155832;1.056622;-0.668213;0.440918;-0.137695;0.561216;-0.369804;-0.714255;-0.195249
29049;8.599789;1.590580;-3.569158;0.104577;0.177914;1.218951;-0.653320;0.452881;-0.145752;0.564522;-0.376271;-0.709800;-0.189522
29050;9.073122;1.298723;-2.896801;0.092984;0.131537;1.096607;-0.636719;0.467285;-0.144287;0.567271;-0.382106;-0.705861;-0.184279
29051;10.964189;1.227717;-3.161102;0.163651;-0.019963;0.702907;-0.637451;0.469727;-0.142334;0.568714;-0.385504;-0.703955;-0.179994
29052;11.521092;1.461525;-4.690879;0.313684;0.016116;0.459031;-0.636719;0.475586;-0.147705;0.570470;-0.386695;-0.702865;-0.176104
29053;11.459040;2.061165;-6.092488;0.655203;0.201127;0.242303;-0.628662;0.479980;-0.148926;0.574075;-0.384711;-0.702073;-0.171839
29054;11.437662;3.093272;-6.208811;1.244197;0.412696;-0.214449;-0.631104;0.478027;-0.161377;0.580104;-0.376905;-0.702523;-0.166984
29055;9.788480;4.563688;-4.147090;1.687597;0.651161;-0.767161;-0.635254;0.462646;-0.183838;0.588038;-0.363314;-0.704037;-0.162928
29056;6.872924;6.468724;-3.749998;1.482393;0.516979;-1.372891;-0.640381;0.437744;-0.195312;0.593572;-0.347255;-0.707564;-0.162602
29057;3.357843;5.681622;-2.674451;0.852727;0.261975;-1.819908;-0.654785;0.414062;-0.207031;0.594996;-0.331919;-0.712585;-0.167429
29058;4.385796;2.993741;-1.390960;0.429021;-0.296064;-2.320976;-0.663086;0.399658;-0.206055;0.591030;-0.316377;-0.720924;-0.175665
29059;9.832119;0.043214;-2.511992;0.188681;-0.717028;-3.060702;-0.691406;0.363525;-0.204102;0.582494;-0.298026;-0.732541;-0.187791
29060;15.779616;-1.763822;-4.661238;0.144622;-0.700280;-3.525555;-0.704102;0.331787;-0.196533;0.572755;-0.276789;-0.744581;-0.202333
29061;18.265609;-2.232237;-5.696320;0.523398;-0.597179;-3.308135;-0.726074;0.281982;-0.191650;0.564402;-0.254690;-0.755633;-0.213549
29062;16.338729;0.328291;-4.812383;0.679011;-0.528286;-2.779044;-0.737305;0.247559;-0.189209;0.557356;-0.234884;-0.764995;-0.221284
29063;15.344608;0.318159;-1.666025;-0.447488;-0.522387;-2.579021;-0.743896;0.217529;-0.177246;0.548206;-0.221450;-0.771447;-0.235160
29064;15.503148;2.272542;-0.413856;-1.351946;-0.475447;-2.657011;-0.754639;0.181641;-0.164307;0.537223;-0.211430;-0.775618;-0.255158
29065;14.932883;1.334943;-1.168065;-1.494540;-0.363735;-2.565069;-0.755127;0.161865;-0.161133;0.526566;-0.202275;-0.778331;-0.275707
29066;13.681784;0.817415;-1.377950;-1.746422;-0.488352;-2.203985;-0.762695;0.141846;-0.148438;0.515190;-0.196735;-0.779935;-0.295932
29067;12.256044;1.253932;-1.574231;-2.509341;-0.297402;-1.775557;-0.764160;0.110840;-0.139648;0.504541;-0.196663;-0.777653;-0.319403
29068;10.854661;0.865506;-2.943474;-2.906749;-0.067833;-1.472569;-0.771973;0.131104;-0.130615;0.495179;-0.199474;-0.772301;-0.344323
29069;9.377646;-0.278269;-2.922103;-2.769841;-0.045747;-1.317811;-0.769531;0.103271;-0.124512;0.486285;-0.202513;-0.766453;-0.367512
29070;8.156883;0.074788;-2.677649;-2.421252;-0.041852;-1.220549;-0.768555;0.102051;-0.130127;0.478018;-0.204627;-0.761044;-0.387863
29071;6.489093;0.146003;-2.617303;-1.925570;-0.143530;-1.206461;-0.774170;0.081787;-0.120361;0.469789;-0.205093;-0.757286;-0.404664
29072;5.603140;-0.577718;-2.945702;-1.380159;-0.497352;-1.125421;-0.781982;0.073730;-0.119873;0.460392;-0.205065;-0.756389;-0.416970
29073;5.292893;-1.469139;-2.602103;-1.049002;-0.746779;-0.934251;-0.779785;0.061523;-0.103760;0.450559;-0.205793;-0.757118;-0.425933
29074;5.205664;-2.241924;-2.275482;-0.822554;-0.864852;-0.668696;-0.780029;0.063477;-0.099121;0.441245;-0.207732;-0.758525;-0.432192
29075;5.068214;-3.041184;-2.021663;-0.581078;-0.866366;-0.325094;-0.780518;0.062256;-0.081543;0.433533;-0.210936;-0.760136;-0.435601
29076;4.606997;-3.572786;-2.053774;-0.196142;-0.823605;0.024750;-0.791016;0.066895;-0.060791;0.428014;-0.214793;-0.762328;-0.435343
29077;4.405186;-3.962054;-1.929217;0.336750;-0.705220;0.322051;-0.781738;0.066895;-0.062988;0.425263;-0.218195;-0.765466;-0.430818
29078;4.846054;-3.585263;-1.034978;0.666185;-0.556947;0.569387;-0.784912;0.071533;-0.057373;0.424921;-0.221460;-0.768768;-0.423548
29079;5.984068;-1.365851;-0.010447;0.633847;-0.229340;0.846293;-0.774414;0.083252;-0.053711;0.427567;-0.225437;-0.770229;-0.416067
29080;7.758543;3.943657;0.893000;0.263032;0.196487;1.189167;-0.786865;0.097168;-0.056396;0.433400;-0.231439;-0.768172;-0.410502
29081;8.390614;10.111096;-0.735426;0.090717;0.411363;1.350321;-0.770508;0.117676;-0.060791;0.440774;-0.238335;-0.764340;-0.405831
29082;8.745168;15.310369;-2.543512;-0.070456;0.770296;1.331950;-0.778564;0.139648;-0.070068;0.449981;-0.244461;-0.758559;-0.402920
29083;8.128533;17.053893;-8.276097;-0.042752;-0.038395;0.882172;-0.767334;0.145996;-0.068848;0.452568;-0.250331;-0.756728;-0.399848
29084;10.767274;13.584314;-7.980958;-0.529146;-0.895490;0.295312;-0.768555;0.152832;-0.058350;0.446743;-0.257175;-0.757681;-0.400251
29085;10.574992;8.552516;-4.976171;-0.533770;-0.817551;-0.114314;-0.774902;0.152100;-0.041748;0.439997;-0.261169;-0.759150;-0.402349
29086;9.678364;5.270432;-3.996394;0.023015;-0.740095;-0.505113;-0.773438;0.145020;-0.039795;0.433614;-0.260374;-0.763003;-0.402505
29087;15.437007;0.461407;-4.583089;0.618779;-1.148941;-0.378408;-0.776123;0.146240;-0.030029;0.426309;-0.259581;-0.769988;-0.397489
29088;21.854243;-0.733594;-1.706217;0.752295;-0.279885;0.664510;-0.781982;0.154297;-0.017822;0.428283;-0.262098;-0.771996;-0.389743
29089;17.756380;7.825882;3.782495;-0.071231;1.491543;0.918776;-0.765869;0.159912;-0.040771;0.440623;-0.263401;-0.764340;-0.390198
29090;7.524756;12.201613;-6.362748;-1.050925;0.305262;-0.054192;-0.773682;0.163086;-0.045898;0.440027;-0.265930;-0.759863;-0.397826
29091;6.120249;0.960800;2.331606;-2.431143;0.043776;-0.403904;-0.767090;0.167236;-0.043213;0.433442;-0.272104;-0.752348;-0.414801
29092;3.804753;-8.937478;-0.792879;-0.802354;0.468985;-0.056409;-0.770264;0.164551;-0.035156;0.434311;-0.273040;-0.747951;-0.421179
29093;3.344361;-9.481984;-6.260582;1.228234;-0.204607;0.977255;-0.769043;0.170166;-0.033936;0.439185;-0.275399;-0.750686;-0.409564
29094;7.784884;-6.589667;-6.850479;1.967017;-0.705522;2.019516;-0.762451;0.197510;-0.045898;0.446019;-0.283171;-0.755114;-0.388181
29095;17.283641;-2.851405;-5.270420;1.836929;-0.508052;1.856943;-0.750977;0.227295;-0.045410;0.453028;-0.289607;-0.758377;-0.368453
29096;12.958055;1.999381;-4.514049;1.529534;0.428995;0.887127;-0.757568;0.238770;-0.060303;0.462080;-0.288091;-0.759232;-0.356443
29097;7.817439;3.329742;-1.653578;0.886493;0.317946;0.832007;-0.750000;0.240479;-0.059570;0.468645;-0.288984;-0.758610;-0.348384
29098;8.036227;0.582671;-2.707305;0.498629;0.081648;1.034707;-0.745117;0.254883;-0.064697;0.473323;-0.293330;-0.757218;-0.341385
29099;9.123619;-0.892028;-4.054240;0.509429;-0.085512;1.144465;-0.739502;0.260254;-0.064209;0.477238;-0.298773;-0.756173;-0.333439
29100;9.750550;-0.559140;-4.375137;0.618843;0.018437;1.207469;-0.728027;0.286621;-0.066895;0.482200;-0.303852;-0.754775;-0.324765
29101;9.054523;-0.094890;-4.368924;0.686186;0.153116;1.240094;-0.730957;0.294189;-0.067383;0.488203;-0.308459;-0.752837;-0.315827
29102;8.555331;-0.304454;-4.092113;0.736599;0.107958;1.249631;-0.724121;0.311523;-0.066895;0.494007;-0.312994;-0.751087;-0.306367
29103;8.567907;-0.896270;-3.576640;0.817206;0.039486;1.285584;-0.706543;0.320068;-0.076904;0.499609;-0.317549;-0.749617;-0.296022
29104;9.255980;-1.039296;-3.192867;0.837539;0.077624;1.344430;-0.709229;0.345459;-0.088379;0.505563;-0.322238;-0.747759;-0.285352
29105;9.401794;-0.255629;-3.039119;0.797318;0.252377;1.310469;-0.699951;0.346680;-0.091797;0.512331;-0.326415;-0.745033;-0.275491
29106;8.861597;0.653129;-2.576372;0.647281;0.380020;1.234508;-0.698975;0.372070;-0.113037;0.519228;-0.330418;-0.741509;-0.267189
29107;8.496816;1.051977;-2.249840;0.370430;0.350219;1.241308;-0.679688;0.384033;-0.101074;0.525124;-0.335683;-0.737378;-0.260451
29108;8.428693;0.633043;-2.242007;0.185726;0.257407;1.318052;-0.673340;0.398438;-0.119873;0.530032;-0.342389;-0.732944;-0.254222
29109;8.827510;-0.438379;-2.389047;0.304643;0.201374;1.412860;-0.661377;0.408203;-0.109131;0.535064;-0.349222;-0.728637;-0.246656
29110;9.151807;-1.103936;-2.787252;0.766320;0.245697;1.385703;-0.657959;0.425049;-0.121826;0.541565;-0.353684;-0.725041;-0.236497
29111;9.094280;-0.883859;-2.956951;1.310438;0.368609;1.181131;-0.651123;0.429199;-0.137451;0.549899;-0.354141;-0.722420;-0.224287
29112;9.124550;-0.120416;-2.834352;1.600775;0.505374;0.941754;-0.643555;0.449463;-0.147705;0.559333;-0.351487;-0.720246;-0.211774
29113;9.142642;1.235067;-2.440022;1.562509;0.508881;0.814817;-0.635742;0.444092;-0.167725;0.568315;-0.348159;-0.718183;-0.200042
29114;9.200592;2.403944;-2.505290;1.294018;0.443411;0.838684;-0.629150;0.459961;-0.184326;0.576048;-0.346283;-0.715763;-0.189578
29115;7.796993;3.311750;-3.137630;0.989762;0.428873;1.004918;-0.616699;0.448730;-0.198486;0.582984;-0.346827;-0.712332;-0.180064
29116;7.462658;5.171377;-3.246331;0.885552;0.510999;1.010144;-0.604492;0.465820;-0.204834;0.590028;-0.347735;-0.708225;-0.171363
29117;8.680239;4.486865;-2.790239;0.632159;0.374267;0.767449;-0.602295;0.476318;-0.216797;0.595118;-0.348616;-0.705049;-0.164947
29118;9.773935;2.932891;-4.147572;0.368808;0.154366;0.596339;-0.594238;0.478760;-0.219727;0.597882;-0.350081;-0.703055;-0.160291
29119;9.541360;3.448748;-6.638797;-0.155129;0.001149;0.530300;-0.595947;0.479980;-0.222412;0.598114;-0.353965;-0.701297;-0.158590
29120;9.526178;3.293528;-7.216617;-0.321416;-0.072768;0.359079;-0.584229;0.485107;-0.222900;0.597184;-0.357767;-0.700181;-0.158496
29121;10.829891;2.124916;-6.904429;0.012427;-0.063363;0.081404;-0.583252;0.488037;-0.212891;0.596931;-0.358272;-0.700281;-0.157866
29122;11.288827;2.016795;-5.909986;0.460900;0.062123;-0.299974;-0.586670;0.482666;-0.220459;0.598238;-0.354153;-0.701478;-0.156893
29123;10.044336;3.868979;-3.785077;0.900994;0.210757;-0.664399;-0.598633;0.480225;-0.233154;0.601202;-0.345494;-0.703548;-0.155596
29124;9.317278;4.653673;-2.655017;0.895583;0.259841;-1.113486;-0.601562;0.466553;-0.242432;0.603784;-0.334126;-0.706573;-0.156715
29125;6.789374;3.789811;-2.337579;0.516736;0.273955;-1.604997;-0.606689;0.445068;-0.240967;0.604646;-0.321696;-0.710273;-0.162562
29126;4.863008;2.833964;-2.210506;0.209777;-0.036167;-1.961259;-0.620361;0.426758;-0.251221;0.602222;-0.309049;-0.715906;-0.171161
29127;6.247479;1.163420;-2.352264;-0.280222;-0.552411;-2.382511;-0.642334;0.401611;-0.237061;0.594645;-0.296978;-0.724265;-0.183413
29128;11.833863;-0.090728;-2.837779;-0.429182;-0.647692;-2.979331;-0.663818;0.377197;-0.234863;0.584888;-0.282030;-0.733955;-0.199187
29129;16.530867;-1.132851;-3.869434;-0.246518;-0.589761;-3.284586;-0.681885;0.344727;-0.216309;0.574986;-0.264027;-0.743853;-0.215324
29130;17.641476;-1.537729;-4.629677;0.253409;-0.643197;-3.065906;-0.707520;0.310791;-0.221680;0.565819;-0.244888;-0.753879;-0.227037
29131;15.181709;0.156375;-3.764505;0.191063;-0.657635;-2.691673;-0.715332;0.274902;-0.208008;0.556795;-0.228269;-0.762632;-0.237203
29132;13.789332;-0.594888;-0.500306;-0.763792;-0.731553;-2.515648;-0.732178;0.257080;-0.201172;0.545537;-0.217225;-0.769104;-0.252350
29133;14.015491;0.247376;-0.488713;-1.460442;-0.719507;-2.634026;-0.742188;0.227783;-0.185303;0.532524;-0.208437;-0.773813;-0.272371
29134;14.246163;0.393080;-2.121365;-1.524939;-0.583655;-2.557585;-0.763184;0.197021;-0.177246;0.520099;-0.199983;-0.777131;-0.292526
29135;13.456848;1.796735;-1.783095;-1.834925;-0.600595;-2.112888;-0.777588;0.175293;-0.158203;0.507816;-0.195673;-0.778554;-0.312552
29136;12.291398;2.185444;-1.961936;-2.534023;-0.401353;-1.690526;-0.777344;0.171143;-0.149902;0.496474;-0.196422;-0.776145;-0.335457
29137;11.133398;1.399110;-3.119847;-2.885827;-0.288584;-1.455463;-0.776855;0.154541;-0.129639;0.485597;-0.199695;-0.771359;-0.359615
29138;10.325487;0.727910;-3.248832;-2.810214;-0.304450;-1.328507;-0.779785;0.148682;-0.121338;0.474782;-0.203383;-0.766108;-0.382487
29139;8.988598;0.601029;-2.979963;-2.491891;-0.329239;-1.262649;-0.788086;0.125000;-0.112549;0.464268;-0.206184;-0.761387;-0.402781
29140;7.513040;-0.216661;-2.821090;-2.037761;-0.466794;-1.212412;-0.795410;0.120605;-0.107910;0.453608;-0.207908;-0.758274;-0.419565
29141;6.800103;-1.207038;-2.662723;-1.710391;-0.669637;-0.996699;-0.789551;0.113037;-0.093750;0.442829;-0.210390;-0.756431;-0.432955
29142;6.354502;-2.173080;-2.277081;-1.510716;-0.808207;-0.637158;-0.799072;0.110107;-0.084961;0.432708;-0.214843;-0.754990;-0.443392
29143;6.020005;-2.975935;-1.898751;-1.244615;-0.798780;-0.215656;-0.803223;0.100342;-0.069336;0.424598;-0.220910;-0.753601;-0.450556
29144;5.280462;-3.431739;-1.599011;-0.905000;-0.806226;0.141895;-0.801514;0.107666;-0.055176;0.418358;-0.228017;-0.752761;-0.454241
29145;4.559019;-3.729553;-1.900451;-0.359795;-0.717464;0.471961;-0.807861;0.115967;-0.042969;0.414929;-0.234937;-0.752991;-0.453479
29146;4.251585;-3.988232;-1.581412;0.213396;-0.553781;0.771253;-0.807861;0.109619;-0.038330;0.414757;-0.241118;-0.754192;-0.448367
29147;4.313407;-3.715533;-1.359118;0.754776;-0.421915;1.009950;-0.800049;0.131592;-0.037109;0.417357;-0.246410;-0.756414;-0.439242
29148;5.391191;-1.640883;-0.169856;1.090246;-0.240208;1.269896;-0.808838;0.162598;-0.029297;0.422677;-0.251469;-0.758579;-0.427393
29149;7.824399;2.954879;3.170990;0.615576;0.373035;1.621379;-0.799805;0.177979;-0.042725;0.432044;-0.258185;-0.756001;-0.418499
29150;9.738698;9.433921;2.798587;0.341866;0.794225;1.696123;-0.789307;0.191895;-0.046387;0.443632;-0.264834;-0.750606;-0.411880
29151;10.999557;18.111937;-3.769231;0.898045;0.908243;1.263074;-0.784180;0.212402;-0.062500;0.455565;-0.266272;-0.747464;-0.403556
29152;8.826583;20.010418;-13.068190;1.157956;-0.490734;0.249705;-0.782715;0.216309;-0.064941;0.455870;-0.265073;-0.752623;-0.394307
29153;10.627427;12.231346;-7.685015;-0.311917;-0.919407;-0.131964;-0.787842;0.215820;-0.040527;0.448938;-0.268446;-0.755358;-0.394746
29154;9.032084;8.900301;-4.148920;-0.442951;-0.622241;-0.313415;-0.792725;0.213135;-0.037842;0.442958;-0.270173;-0.756915;-0.397334
29155;10.872621;4.860126;-3.699756;0.259355;-0.884133;-0.603687;-0.798584;0.198730;-0.024658;0.435915;-0.268326;-0.762365;-0.395954
29156;18.672535;-2.006436;-4.838177;0.626363;-1.058781;-0.232366;-0.794922;0.207275;-0.012207;0.429766;-0.268056;-0.768756;-0.390464
29157;20.349916;-1.594702;1.033641;0.222181;0.414759;0.646274;-0.796143;0.217773;-0.013428;0.434984;-0.270046;-0.766537;-0.387668
29158;15.131047;8.415814;-0.299972;0.039680;1.372248;0.749889;-0.796143;0.217041;-0.030762;0.446199;-0.270240;-0.759938;-0.387777
29159;5.475194;10.166353;-7.592934;-0.653522;0.395436;-0.152717;-0.803223;0.216064;-0.033447;0.446702;-0.270429;-0.756675;-0.393407
29160;4.024191;2.406796;0.902721;-2.656361;-0.720313;-0.206775;-0.798096;0.218018;-0.020996;0.435348;-0.281310;-0.750907;-0.409238
29161;6.264052;-5.805811;1.054390;-1.618693;-0.177818;0.213021;-0.801758;0.226562;-0.016602;0.431096;-0.289104;-0.745451;-0.418184
29162;7.543786;-9.440546;-5.963754;0.479072;-0.404132;0.937672;-0.794922;0.240967;-0.006348;0.432961;-0.294613;-0.746271;-0.410887
29163;9.364204;-8.631089;-6.145964;1.979151;-0.241763;1.799045;-0.787842;0.251221;-0.008789;0.442345;-0.299418;-0.749319;-0.391409
29164;11.306154;-4.558942;-5.336738;2.043339;-0.194973;1.789052;-0.789307;0.274902;-0.019531;0.451930;-0.303615;-0.752060;-0.371461
29165;12.510086;0.142604;-3.920684;1.686050;0.109244;1.149750;-0.778320;0.298584;-0.025879;0.460359;-0.304084;-0.753872;-0.356763
29166;9.307115;2.923065;-2.905718;0.999136;0.232501;0.946984;-0.778320;0.309326;-0.032471;0.467122;-0.305484;-0.753523;-0.347389
29167;8.116510;3.287970;-2.739170;0.319531;0.168401;1.037742;-0.774658;0.323975;-0.031982;0.471963;-0.310253;-0.751142;-0.341730
29168;8.177110;0.915570;-2.999448;0.065582;0.088962;0.970722;-0.773682;0.326416;-0.039062;0.475423;-0.315804;-0.748466;-0.337696
29169;8.257119;-0.030298;-4.173280;-0.073550;-0.070748;0.927784;-0.762451;0.334961;-0.032471;0.477370;-0.322069;-0.746098;-0.334256
29170;8.734861;-0.227098;-4.802885;-0.008147;-0.135448;0.984232;-0.756836;0.356445;-0.027344;0.479215;-0.328584;-0.743973;-0.329984
29171;8.863424;-0.968116;-4.179054;0.209342;-0.089227;1.068691;-0.748535;0.362549;-0.030518;0.482138;-0.334600;-0.741978;-0.324122
29172;9.130016;-1.410195;-3.505730;0.472052;-0.072443;1.122108;-0.749512;0.390381;-0.031738;0.485996;-0.339813;-0.740409;-0.316431
29173;9.601352;-1.139198;-3.379083;0.691313;0.024805;1.073712;-0.748047;0.392578;-0.040039;0.490894;-0.343547;-0.739084;-0.307819
29174;9.336382;-0.352029;-3.083460;0.801483;0.159140;0.948882;-0.728760;0.406250;-0.043457;0.496560;-0.345679;-0.737768;-0.299386
29175;8.841136;0.458865;-2.860200;0.727932;0.207988;0.878021;-0.732666;0.411621;-0.049805;0.502087;-0.347524;-0.736196;-0.291807
29176;8.672957;0.891688;-2.881152;0.513631;0.155175;0.900081;-0.719727;0.422363;-0.058350;0.506679;-0.350500;-0.734197;-0.285272
29177;8.641671;0.890564;-3.102189;0.317356;0.099379;0.941571;-0.715576;0.440186;-0.055664;0.510418;-0.354668;-0.731792;-0.279580
29178;8.695357;0.362970;-3.142051;0.323324;0.125880;0.963714;-0.711426;0.443848;-0.064209;0.514349;-0.358859;-0.729170;-0.273817
29179;8.857274;-0.188625;-3.135890;0.534827;0.186865;0.943004;-0.702881;0.458252;-0.077393;0.519196;-0.361851;-0.726774;-0.267019
29180;9.115537;-0.579258;-3.150944;0.878082;0.248861;0.871606;-0.693604;0.462402;-0.079590;0.525242;-0.362753;-0.725019;-0.258610
29181;9.235712;-0.365599;-2.966946;1.114101;0.325722;0.771787;-0.697266;0.469482;-0.089111;0.532186;-0.361810;-0.723647;-0.249412
29182;9.176563;0.419391;-2.649443;1.107326;0.358127;0.728665;-0.683838;0.475098;-0.105469;0.539144;-0.360523;-0.722151;-0.240511
29183;9.446995;1.003569;-2.288318;0.973263;0.371059;0.795007;-0.679199;0.490234;-0.125244;0.545842;-0.360167;-0.720037;-0.232128
29184;9.731498;1.263657;-2.356609;0.835578;0.395959;0.911526;-0.672607;0.494873;-0.133057;0.552437;-0.361048;-0.717105;-0.224094
29185;8.749886;1.239570;-2.656741;0.783822;0.465483;1.054914;-0.663330;0.503906;-0.131348;0.559488;-0.362851;-0.713233;-0.215895
29186;7.481347;1.929511;-3.096972;0.898073;0.496551;1.131953;-0.656738;0.517822;-0.149658;0.567125;-0.364471;-0.709081;-0.206724
29187;8.338700;2.690900;-2.975113;0.838196;0.414122;0.920365;-0.645264;0.519531;-0.166748;0.573647;-0.365215;-0.705757;-0.198631
29188;8.785671;1.965251;-3.605406;0.508486;0.271921;0.651858;-0.644043;0.536377;-0.165771;0.577835;-0.366162;-0.703321;-0.193316
29189;8.883220;2.347754;-5.784664;0.130141;0.158931;0.544802;-0.642334;0.543945;-0.165283;0.580011;-0.368471;-0.701119;-0.190388
29190;8.625460;2.823309;-6.618833;-0.005067;0.114432;0.405060;-0.632324;0.543213;-0.170654;0.581278;-0.370682;-0.699336;-0.188786
29191;9.276490;1.536289;-5.611438;0.276624;0.051159;0.207401;-0.633057;0.536865;-0.175537;0.582727;-0.370471;-0.698907;-0.186304
29192;9.921453;1.180290;-4.993047;0.838200;0.082742;-0.068844;-0.639404;0.530029;-0.188477;0.585646;-0.365864;-0.700031;-0.181984
29193;11.197153;2.084900;-5.414511;1.247421;0.064301;-0.395930;-0.632812;0.529053;-0.194580;0.589160;-0.357349;-0.702803;-0.176804
29194;10.719256;3.499415;-4.216581;1.503485;0.126882;-0.667411;-0.653564;0.512695;-0.201660;0.593311;-0.345840;-0.706345;-0.171620
29195;8.751917;4.946368;-3.850479;1.211177;0.015818;-1.065085;-0.663574;0.510742;-0.219238;0.595287;-0.333531;-0.711031;-0.169779
29196;6.249220;5.126651;-2.876996;0.559439;-0.029083;-1.482300;-0.677002;0.487549;-0.229980;0.594489;-0.321988;-0.716049;-0.173725
29197;5.145370;3.216429;-1.273707;0.072848;-0.184717;-1.816792;-0.686279;0.466309;-0.210449;0.590852;-0.311020;-0.721882;-0.181789
29198;7.164981;1.092433;-0.610894;-0.159485;-0.448335;-2.261271;-0.706787;0.442627;-0.215820;0.584175;-0.298829;-0.729592;-0.192709
29199;11.414921;-0.110033;-2.106066;-0.182099;-0.557793;-2.801230;-0.731445;0.405762;-0.197998;0.575635;-0.283501;-0.738797;-0.206036
29200;14.773620;-1.432550;-3.553617;-0.158777;-0.601105;-3.003283;-0.752930;0.375732;-0.192871;0.566184;-0.266718;-0.748274;-0.219963
29201;15.837337;-1.631234;-4.015642;-0.081567;-0.569337;-2.641515;-0.768799;0.340088;-0.184082;0.557437;-0.251613;-0.756504;-0.231641
29202;14.343553;0.337331;-2.983302;-0.296154;-0.409632;-2.244856;-0.790527;0.316406;-0.175293;0.549768;-0.239585;-0.762416;-0.243058
29203;13.412071;-0.201010;-1.007349;-0.492814;-0.485075;-2.258332;-0.801025;0.281738;-0.165771;0.540992;-0.228434;-0.768013;-0.255542
29204;13.152937;0.378323;-1.080825;-0.859901;-0.612746;-2.387052;-0.808594;0.247803;-0.162109;0.530195;-0.218289;-0.773316;-0.270603
29205;13.265821;0.523418;-1.510455;-1.189453;-0.558114;-2.276615;-0.826172;0.228271;-0.139404;0.519147;-0.210084;-0.777062;-0.287271
29206;12.600706;1.313587;-2.170181;-1.513308;-0.435631;-1.975720;-0.831055;0.205566;-0.134521;0.508807;-0.204838;-0.778617;-0.304815
29207;11.648283;1.078386;-2.518721;-1.740379;-0.296582;-1.744748;-0.839844;0.189697;-0.124512;0.499347;-0.201611;-0.778270;-0.322957
29208;10.860307;0.568637;-2.846431;-1.868385;-0.321052;-1.554656;-0.848877;0.166992;-0.118652;0.489815;-0.200129;-0.777032;-0.340957
29209;10.659609;0.089683;-3.152086;-1.798347;-0.336866;-1.362165;-0.842773;0.138916;-0.099854;0.480654;-0.199573;-0.775435;-0.357553
29210;9.622740;0.275208;-2.992247;-1.544870;-0.316623;-1.178114;-0.854980;0.131592;-0.083496;0.472444;-0.199066;-0.773963;-0.371688
29211;8.531394;0.269592;-2.755200;-1.302739;-0.412726;-1.000913;-0.855957;0.114502;-0.090820;0.464456;-0.198997;-0.773146;-0.383311
29212;7.675914;-0.434379;-2.407900;-1.109842;-0.506956;-0.856828;-0.856201;0.104492;-0.076172;0.456560;-0.199375;-0.772936;-0.392903
29213;7.542209;-0.960583;-2.447101;-0.943974;-0.581539;-0.640840;-0.858398;0.092041;-0.066406;0.449109;-0.200728;-0.773093;-0.400421
29214;7.163846;-1.179479;-1.858410;-0.761800;-0.538533;-0.399820;-0.865234;0.085938;-0.063477;0.443004;-0.202788;-0.773225;-0.405892
29215;6.650443;-1.614040;-1.882076;-0.554492;-0.573444;-0.156528;-0.867920;0.090820;-0.046143;0.437823;-0.205754;-0.773733;-0.409039
29216;5.905502;-2.061654;-2.490157;-0.173524;-0.714989;0.059719;-0.861084;0.094727;-0.034668;0.433104;-0.209197;-0.775656;-0.408674
29217;5.505556;-2.343660;-2.249595;0.257194;-0.658635;0.197028;-0.870117;0.090576;-0.025146;0.429954;-0.211771;-0.778578;-0.405103
29218;5.849683;-2.071641;-1.094839;0.560789;-0.464451;0.327900;-0.867188;0.098145;-0.020508;0.429026;-0.213439;-0.781570;-0.399411
29219;6.834514;-0.538830;0.081378;0.592148;-0.083791;0.461280;-0.868896;0.096191;-0.021729;0.431061;-0.214586;-0.783036;-0.393693
29220;6.796321;2.653146;-0.313887;0.827179;0.071084;0.515367;-0.859131;0.105713;-0.017090;0.434681;-0.214724;-0.784578;-0.386502
29221;6.476772;5.636504;-2.276676;1.096878;0.033566;0.475738;-0.862793;0.111084;-0.024170;0.438375;-0.213731;-0.787127;-0.377595
29222;6.061197;6.450674;-5.587354;1.398995;-0.189865;0.286905;-0.863525;0.116943;-0.025635;0.440491;-0.211074;-0.791680;-0.366958
29223;6.621993;5.558091;-7.569206;1.765902;-0.648976;0.012921;-0.863281;0.110107;-0.027100;0.439298;-0.206624;-0.799368;-0.354027
29224;7.824998;4.615447;-6.962534;2.006126;-0.897716;-0.176350;-0.862061;0.118652;-0.012695;0.436173;-0.200703;-0.808769;-0.339652
29225;9.361337;4.252262;-4.988939;2.096801;-0.651608;-0.246141;-0.863525;0.105957;-0.004395;0.434513;-0.193214;-0.817376;-0.325212
29226;10.678904;5.565427;-4.567414;2.259611;-0.361613;-0.374835;-0.869385;0.098145;-0.001953;0.434585;-0.183404;-0.825289;-0.310480
29227;10.928017;8.275643;-5.207734;2.669801;-0.075446;-0.257599;-0.866455;0.098633;-0.003418;0.437365;-0.172094;-0.832682;-0.292807
29228;16.221635;4.645645;1.169451;2.312437;0.092395;0.510138;-0.871094;0.100098;-0.003418;0.442473;-0.166931;-0.837116;-0.274935
29229;31.415669;4.756569;2.766907;1.323988;0.123671;1.901342;-0.860352;0.131348;-0.012451;0.449443;-0.174988;-0.836907;-0.258780
29230;13.430535;3.033055;-1.482272;0.588102;1.387151;0.496739;-0.860107;0.138428;-0.035400;0.461004;-0.173243;-0.832187;-0.254807
29231;4.122448;-2.279016;-2.827086;-0.762887;0.440114;-0.435783;-0.861572;0.131836;-0.038574;0.462013;-0.172215;-0.829479;-0.262394
29232;2.954368;-6.740180;-3.856715;0.191929;0.020181;-0.407810;-0.868164;0.117188;-0.048828;0.461533;-0.168613;-0.830404;-0.262651
29233;7.071295;-7.959708;-6.006476;0.717963;-0.394165;-0.152179;-0.869629;0.128662;-0.026123;0.459473;-0.165652;-0.833696;-0.257674
29234;11.794688;-5.932529;-7.587572;1.606896;-0.131132;-0.034536;-0.863037;0.120361;-0.035645;0.460671;-0.159511;-0.837638;-0.246376
29235;8.323270;-2.600319;-5.072710;2.439934;0.450861;-0.356772;-0.862305;0.110596;-0.045410;0.466237;-0.146672;-0.841230;-0.231176
29236;8.138195;1.653336;-4.910105;2.490402;0.135409;-0.754021;-0.864990;0.104736;-0.054932;0.468679;-0.131389;-0.846248;-0.216661
29237;10.660484;-0.076349;-4.256819;2.504813;0.009239;-0.685350;-0.864014;0.087158;-0.044434;0.470151;-0.116698;-0.851307;-0.201535
29238;12.215073;-2.218907;-4.780175;2.483681;0.173356;-0.282723;-0.858887;0.084229;-0.063232;0.473232;-0.104616;-0.854907;-0.185044
29239;10.792487;-2.085716;-4.742877;2.648130;0.410958;-0.156923;-0.868164;0.070557;-0.072510;0.478122;-0.092362;-0.857310;-0.166996
29240;8.833975;-0.953079;-4.336252;2.793579;0.452517;-0.211345;-0.864502;0.060059;-0.080322;0.483093;-0.079030;-0.859333;-0.148059
29241;7.435408;0.303034;-5.187725;2.820123;0.327627;-0.286229;-0.865723;0.067627;-0.085693;0.486822;-0.065163;-0.861453;-0.129062
29242;7.137748;0.721749;-6.246675;2.897794;0.246225;-0.419662;-0.864014;0.053467;-0.090820;0.489582;-0.050071;-0.863550;-0.109925
29243;7.624017;0.337228;-6.576300;2.975405;0.245208;-0.538194;-0.865723;0.050293;-0.093262;0.491953;-0.033777;-0.865231;-0.090644
29244;7.685191;-0.289359;-6.700664;2.922818;0.278607;-0.629614;-0.859131;0.024170;-0.102295;0.494169;-0.016992;-0.866207;-0.072065
29245;7.751921;-0.253361;-6.998938;2.868727;0.286690;-0.736818;-0.867920;0.003174;-0.106934;0.496064;0.000361;-0.866588;-0.054273
29246;8.069311;1.029363;-7.053453;2.880439;0.347095;-0.815144;-0.870850;-0.015625;-0.105713;0.498049;0.018358;-0.866178;-0.036683
29247;8.112255;2.362633;-6.013502;2.849880;0.458952;-0.928095;-0.864014;-0.015137;-0.117432;0.500495;0.037064;-0.864721;-0.019743
29248;7.946052;3.008335;-4.872110;2.623468;0.472539;-0.987385;-0.863281;-0.040771;-0.115234;0.502798;0.055231;-0.862625;-0.004673
29249;7.849208;3.002782;-4.841533;2.439656;0.428611;-0.924751;-0.850342;-0.060791;-0.127930;0.504610;0.072146;-0.860277;0.009312
29250;8.498900;2.583309;-4.779082;2.332013;0.430782;-0.840464;-0.867920;-0.074463;-0.133301;0.506263;0.087967;-0.857576;0.022867
29251;8.968759;2.036743;-4.856548;2.235342;0.487927;-0.769243;-0.858643;-0.102051;-0.134277;0.508168;0.102821;-0.854338;0.036056
29252;8.998245;1.633562;-4.674578;2.176588;0.479840;-0.730257;-0.848633;-0.113281;-0.135986;0.509854;0.117109;-0.850845;0.048964
29253;9.247187;1.600570;-4.639109;2.126121;0.446669;-0.716010;-0.857910;-0.126953;-0.136719;0.511158;0.131049;-0.847207;0.061519
29254;9.050398;1.654452;-4.414303;2.058392;0.460978;-0.713822;-0.845703;-0.135010;-0.128418;0.512455;0.144630;-0.843241;0.073594
29255;8.842962;2.006679;-4.074224;1.967406;0.437689;-0.682126;-0.846680;-0.153564;-0.134766;0.513510;0.157565;-0.839188;0.085108
29256;8.673264;1.865083;-3.764301;1.825688;0.418754;-0.631663;-0.844727;-0.165039;-0.139160;0.514434;0.169507;-0.835135;0.095789
29257;8.658651;1.524066;-3.429621;1.713292;0.387121;-0.588777;-0.838379;-0.177246;-0.138916;0.515131;0.180649;-0.831152;0.105797
29258;8.791180;1.314920;-3.009101;1.646780;0.377017;-0.602239;-0.834961;-0.193604;-0.143066;0.515752;0.191565;-0.827057;0.115242
29259;8.531357;1.116982;-3.089167;1.653938;0.336081;-0.609461;-0.833008;-0.206055;-0.132568;0.515972;0.202557;-0.822932;0.124609
29260;8.231416;0.993037;-3.306739;1.730532;0.248376;-0.658003;-0.830566;-0.214355;-0.131592;0.515389;0.214256;-0.818829;0.134115
29261;7.958344;1.469272;-3.626251;1.734424;0.188327;-0.722008;-0.830566;-0.226562;-0.129395;0.514338;0.226420;-0.814664;0.143227
29262;7.608761;2.118404;-3.636189;1.663044;0.248989;-0.813304;-0.829590;-0.246094;-0.127686;0.513816;0.238770;-0.809950;0.151537
29263;7.418734;2.495045;-3.555197;1.562446;0.345112;-0.957655;-0.817139;-0.250977;-0.128662;0.514202;0.251483;-0.804467;0.158697
29264;8.095054;2.232451;-3.547286;1.523088;0.396193;-1.170844;-0.813721;-0.281250;-0.125488;0.515166;0.265321;-0.798167;0.164738
29265;9.785820;2.047148;-3.730264;1.553839;0.433878;-1.513745;-0.802490;-0.304688;-0.128174;0.516626;0.281442;-0.790661;0.169538
29266;11.319964;2.040310;-3.363897;1.667720;0.505814;-2.033106;-0.792725;-0.321289;-0.115479;0.518814;0.301251;-0.781134;0.172942
29267;10.759424;1.624220;-2.445731;1.941907;0.583640;-2.645148;-0.785645;-0.371582;-0.106934;0.521370;0.325921;-0.768845;0.175573
29268;9.257346;1.225577;-1.975649;2.323498;0.589526;-3.155713;-0.751221;-0.403320;-0.099609;0.523193;0.355210;-0.753865;0.178277
29269;9.448593;0.181413;-1.071990;2.619265;0.567299;-3.522848;-0.712402;-0.463135;-0.090576;0.523909;0.387686;-0.736529;0.180953
29270;12.265454;-1.057039;-1.642229;2.937718;0.773100;-3.670400;-0.690918;-0.501953;-0.077393;0.524317;0.421584;-0.716247;0.185334
29271;13.838607;-1.445207;-2.595975;3.566440;1.097166;-3.580265;-0.654053;-0.547363;-0.058838;0.523412;0.456453;-0.692664;0.194695
29272;12.874840;-1.365034;-2.885932;4.245035;1.188074;-3.380369;-0.625488;-0.590088;-0.030518;0.519084;0.492073;-0.666947;0.208800
29273;10.949543;-0.310429;-2.975233;4.519198;1.019169;-3.217207;-0.591064;-0.625000;0.005371;0.511281;0.527194;-0.640691;0.223994
29274;10.784170;0.760485;-2.369034;4.438995;0.812047;-3.086640;-0.564209;-0.647461;0.048828;0.501388;0.560537;-0.614655;0.237923
29275;11.219968;1.980989;-1.528852;3.973469;0.809531;-2.928697;-0.530762;-0.673340;0.081543;0.492380;0.590056;-0.589117;0.249675
29276;11.179978;3.519656;-2.113626;3.237478;0.984835;-2.725513;-0.492920;-0.686768;0.115723;0.486694;0.614297;-0.564470;0.259116
29277;10.234209;5.018593;-2.911585;2.399648;1.154291;-2.549937;-0.466309;-0.708740;0.128418;0.485153;0.633271;-0.541192;0.265905
29278;9.093460;5.355251;-3.395935;1.635488;1.244040;-2.352408;-0.437012;-0.717041;0.132812;0.487243;0.647536;-0.519841;0.270289
29279;8.422711;4.497336;-3.333393;1.020518;1.316426;-2.039471;-0.420654;-0.726562;0.145996;0.491986;0.657398;-0.500970;0.273508
29280;7.908632;3.590863;-3.015037;0.600847;1.360942;-1.696735;-0.406738;-0.740723;0.144043;0.498177;0.663745;-0.484545;0.276546
29281;7.507116;3.160074;-2.499848;0.384296;1.383904;-1.380617;-0.393799;-0.746826;0.136719;0.504788;0.667643;-0.470121;0.280052
29282;7.044023;3.043467;-2.416476;0.322344;1.354997;-1.128992;-0.377930;-0.751465;0.129150;0.510930;0.670182;-0.457247;0.284134
29283;6.449902;2.830540;-2.493803;0.398985;1.248710;-0.958668;-0.373779;-0.756104;0.136963;0.515742;0.672518;-0.445491;0.288562
29284;5.883434;2.530822;-2.308764;0.609296;1.075172;-0.830832;-0.360596;-0.767822;0.129150;0.518294;0.675602;-0.434617;0.293328
29285;5.693088;2.366609;-2.293139;0.890160;0.902296;-0.730416;-0.359863;-0.762695;0.132080;0.518366;0.679839;-0.424295;0.298477
29286;5.534352;2.240073;-2.459776;1.241142;0.782717;-0.651944;-0.343262;-0.766602;0.152832;0.515733;0.685479;-0.414019;0.304510
29287;5.380778;2.527706;-2.629718;1.607674;0.683770;-0.588937;-0.335938;-0.767090;0.169922;0.510368;0.692643;-0.403466;0.311424
29288;5.407355;3.352414;-2.632042;1.836829;0.671833;-0.541404;-0.339355;-0.759277;0.185059;0.503389;0.700466;-0.392542;0.319151
29289;5.677312;4.352301;-2.921708;2.009068;0.705468;-0.508672;-0.332275;-0.753662;0.196777;0.495279;0.708548;-0.381138;0.327708
29290;5.666437;5.368865;-3.137934;2.103343;0.666707;-0.420736;-0.333496;-0.749756;0.228516;0.486127;0.716585;-0.370029;0.336548
29291;5.261440;6.742340;-2.909246;1.982034;0.625636;-0.324731;-0.324951;-0.747803;0.251709;0.477079;0.723755;-0.359859;0.345074
29292;4.775229;8.757646;-2.732234;1.667267;0.555950;-0.276228;-0.330078;-0.742676;0.262939;0.469468;0.729568;-0.351033;0.352287
29293;4.804537;9.835880;-2.305047;1.258168;0.430330;-0.228942;-0.331543;-0.741943;0.281982;0.463789;0.733833;-0.344168;0.357683
29294;5.382166;9.546386;-1.998092;0.871905;0.311309;-0.162090;-0.327881;-0.725586;0.298340;0.459855;0.736726;-0.339271;0.361475
29295;5.848617;8.586914;-2.336023;0.602477;0.173361;-0.099635;-0.318604;-0.728760;0.295166;0.456910;0.738833;-0.336053;0.363906
29296;6.116084;7.693697;-2.945913;0.368150;-0.083082;0.018423;-0.324707;-0.727783;0.302246;0.454433;0.740459;-0.335232;0.364460
29297;6.588963;6.792827;-3.919397;0.249628;-0.327619;0.195137;-0.322021;-0.727051;0.310059;0.451436;0.741859;-0.336809;0.363882
29298;7.550894;5.262952;-5.381717;0.229908;-0.393007;0.515010;-0.322754;-0.721436;0.309326;0.447386;0.742498;-0.340635;0.364018
29299;8.678748;3.465285;-3.919335;0.315869;-0.423198;0.995782;-0.335205;-0.719482;0.311279;0.441274;0.742125;-0.347280;0.365956
29300;17.000860;4.622838;5.427515;0.118515;0.150397;1.719347;-0.356689;-0.705322;0.315674;0.435818;0.737037;-0.356871;0.373473
29301;21.679364;12.050181;-6.296566;0.867084;0.881175;1.679666;-0.378418;-0.692627;0.318359;0.427888;0.732352;-0.361113;0.387517
29302;11.792261;10.153595;-4.141723;0.445555;0.328383;-0.200825;-0.375244;-0.683594;0.326172;0.426907;0.733493;-0.357136;0.390118
29303;8.692625;1.384404;1.998343;-1.409978;0.406388;-0.419532;-0.369873;-0.702148;0.302979;0.438066;0.728418;-0.357509;0.386900
29304;5.285996;-3.952214;-1.907381;0.073424;0.545581;-0.040073;-0.374756;-0.703369;0.305176;0.439495;0.727089;-0.354847;0.390216
29305;5.352580;-8.103053;-5.185407;2.460141;-0.035312;0.541584;-0.385254;-0.689697;0.333008;0.422686;0.734524;-0.349999;0.399139
29306;7.699861;-6.929853;-5.885217;3.693954;-0.169209;1.201972;-0.397705;-0.656494;0.374512;0.395442;0.744231;-0.345358;0.412884
29307;9.623476;-0.794488;-4.621027;4.092485;0.126177;1.409233;-0.414062;-0.619385;0.421875;0.365374;0.752757;-0.339283;0.429820
29308;12.059504;6.498550;-5.601341;3.206212;0.120366;1.204927;-0.426514;-0.580811;0.450928;0.341106;0.758433;-0.334741;0.443142
29309;10.643456;9.193194;-4.893619;1.837356;0.390280;0.729780;-0.435303;-0.573730;0.459717;0.327751;0.760110;-0.331315;0.452817
29310;8.410508;4.736021;-3.953675;0.589581;0.217294;0.726886;-0.444580;-0.562012;0.473877;0.322076;0.758858;-0.333007;0.457720
29311;9.074915;0.724015;-4.268195;0.018804;0.024017;0.901400;-0.451416;-0.553467;0.470215;0.318573;0.756398;-0.338408;0.460275
29312;9.380502;-0.388609;-4.775316;0.104050;0.071271;1.039967;-0.459473;-0.542480;0.462158;0.314154;0.753518;-0.344227;0.463709
29313;9.132147;-0.899327;-4.662851;0.583694;0.208345;1.175427;-0.466797;-0.521729;0.484619;0.306680;0.750818;-0.348708;0.469705
29314;9.062661;-0.407634;-3.981822;0.890276;0.255730;1.380665;-0.481934;-0.510010;0.482422;0.296080;0.748317;-0.352915;0.477294
29315;9.347464;0.188107;-3.451608;1.084717;0.230654;1.418266;-0.501465;-0.491211;0.485352;0.284275;0.745999;-0.356653;0.485254
29316;9.206433;0.491739;-3.431745;1.263203;0.235170;1.292387;-0.513428;-0.476562;0.500732;0.271932;0.744136;-0.358903;0.493461
29317;8.722684;0.712882;-3.615000;1.169993;0.260023;1.187276;-0.517578;-0.455322;0.497559;0.260608;0.742248;-0.360666;0.501071
29318;8.284685;0.945576;-3.540363;0.955578;0.244387;1.140509;-0.527588;-0.439209;0.503906;0.250883;0.739934;-0.363028;0.507707
29319;8.309001;1.402657;-3.242682;0.713193;0.219531;1.096119;-0.541016;-0.410400;0.512451;0.242734;0.737284;-0.366130;0.513264
29320;8.437696;1.315835;-2.809765;0.447393;0.209271;1.056949;-0.541504;-0.409180;0.510254;0.235904;0.734142;-0.370163;0.518039
29321;8.532186;0.983041;-2.867750;0.222290;0.189985;1.047642;-0.556641;-0.397705;0.510254;0.230781;0.730750;-0.375014;0.521640
29322;8.639351;0.280384;-2.694955;0.188415;0.176838;1.066477;-0.568848;-0.387939;0.507812;0.225713;0.727114;-0.380190;0.525181
29323;8.828054;-0.367127;-2.229717;0.323554;0.202647;1.087784;-0.569580;-0.361816;0.515137;0.219871;0.723400;-0.384861;0.529368
29324;9.229144;-0.568443;-1.982614;0.672414;0.208885;1.045517;-0.576904;-0.351318;0.511963;0.211623;0.720533;-0.387642;0.534586
29325;9.609049;-0.314860;-1.906324;0.978002;0.202439;0.958204;-0.587402;-0.336182;0.513428;0.202131;0.718380;-0.388509;0.540495
29326;9.719284;0.037776;-2.167753;1.063042;0.201466;0.903836;-0.599854;-0.320068;0.525391;0.192460;0.716371;-0.388653;0.546554
29327;9.437457;0.538898;-2.846374;1.010140;0.266624;0.942052;-0.596191;-0.311279;0.523438;0.183017;0.713808;-0.389087;0.552805
29328;8.160976;1.287975;-3.616299;1.031137;0.418125;1.006034;-0.607422;-0.277832;0.519287;0.173933;0.710451;-0.389432;0.559776
29329;6.428985;2.922005;-3.515939;1.161989;0.525511;1.044334;-0.607178;-0.258789;0.523682;0.163897;0.706285;-0.389296;0.568109
29330;8.316444;4.009042;-3.375421;0.971727;0.337194;0.779565;-0.623779;-0.245605;0.518799;0.155528;0.703763;-0.388604;0.574035
29331;10.019294;2.145205;-4.234677;0.600850;0.098180;0.517644;-0.626709;-0.236328;0.529785;0.150042;0.702431;-0.388519;0.577175
29332;10.515841;2.242049;-6.946162;0.394957;-0.054178;0.521441;-0.622803;-0.233887;0.531006;0.145101;0.701725;-0.389556;0.578596
29333;10.445482;2.465249;-7.293948;0.475408;-0.023036;0.493142;-0.631104;-0.221191;0.529053;0.140105;0.701162;-0.389945;0.580245
29334;11.863227;1.523377;-7.085606;0.815911;-0.016885;0.281915;-0.629395;-0.215820;0.537354;0.134139;0.701399;-0.387508;0.582996
29335;12.349496;1.802359;-7.591668;0.882303;0.084046;-0.073322;-0.622314;-0.210938;0.541504;0.129863;0.702505;-0.382487;0.585940
29336;10.805664;4.148975;-6.491568;0.672578;0.040808;-0.451600;-0.620605;-0.195801;0.535889;0.128504;0.704928;-0.376265;0.587357
29337;9.162671;5.357798;-3.591699;0.268205;-0.037467;-0.959853;-0.620850;-0.215088;0.536621;0.131453;0.708580;-0.369196;0.586795
29338;7.940699;5.476614;-0.659585;0.024707;-0.001557;-1.566332;-0.608398;-0.230469;0.540527;0.139261;0.713601;-0.359590;0.584872
29339;7.121441;4.102107;-0.841335;-0.156584;0.064097;-2.123372;-0.596924;-0.258301;0.537842;0.150906;0.719733;-0.347340;0.581865
29340;7.070904;1.391953;-1.799339;-0.219670;-0.196978;-2.538363;-0.571045;-0.293457;0.540039;0.164248;0.728005;-0.333048;0.576290
29341;10.856258;0.913451;-1.564973;0.101438;-0.591840;-3.008614;-0.554443;-0.301270;0.541016;0.176710;0.739554;-0.314674;0.568167
29342;15.782029;-1.302080;-1.587972;-0.035329;-0.661466;-3.176860;-0.537354;-0.340332;0.553955;0.190160;0.750801;-0.295950;0.559062
29343;16.523264;-2.463280;-2.504696;-0.208783;-0.489267;-2.864326;-0.510254;-0.357910;0.554932;0.203615;0.759689;-0.279500;0.550721
29344;14.523962;-0.915350;-2.988411;-0.237247;-0.372167;-2.626351;-0.483154;-0.389404;0.554199;0.216284;0.767004;-0.264344;0.543184
29345;13.813062;-0.446237;-2.957365;-0.611956;-0.408965;-2.736193;-0.470947;-0.411133;0.546143;0.231684;0.773639;-0.250104;0.534091
29346;13.677267;0.675098;-2.906133;-1.033739;-0.346982;-2.920318;-0.435059;-0.441895;0.547363;0.250601;0.779059;-0.236297;0.523861
29347;13.459718;0.376504;-2.478860;-1.242591;-0.272115;-2.874621;-0.409912;-0.477295;0.534424;0.270645;0.783103;-0.223366;0.513428
29348;12.410733;0.591750;-2.529234;-1.474249;-0.285022;-2.607107;-0.381836;-0.499023;0.524902;0.290863;0.785649;-0.213060;0.502752
29349;11.327975;1.016002;-2.698052;-1.949265;-0.211877;-2.356761;-0.363037;-0.529785;0.503662;0.313079;0.785781;-0.206070;0.492000
29350;11.139997;0.760266;-3.431851;-2.012342;-0.155063;-2.134593;-0.335693;-0.563232;0.483643;0.334701;0.784632;-0.200520;0.481788
29351;10.494239;0.445938;-3.278213;-1.925789;-0.036438;-1.984003;-0.312012;-0.583740;0.464355;0.355162;0.782545;-0.195167;0.472645
29352;9.109320;0.045172;-3.285346;-1.700873;-0.062825;-1.894872;-0.296387;-0.609863;0.450684;0.373585;0.780692;-0.189497;0.463730
29353;7.566097;-0.859754;-2.423983;-1.311415;-0.260583;-1.794659;-0.275146;-0.624268;0.440674;0.388625;0.780339;-0.183522;0.454270
29354;6.664580;-1.356937;-1.714492;-1.064826;-0.528918;-1.587205;-0.248291;-0.636719;0.424316;0.400743;0.781236;-0.178782;0.443973
29355;6.067613;-1.649422;-1.337427;-1.013127;-0.640073;-1.285337;-0.237793;-0.656250;0.420898;0.411144;0.782072;-0.176151;0.433930
29356;5.502947;-1.821681;-1.060744;-0.951698;-0.696536;-0.929516;-0.222656;-0.655273;0.420410;0.419697;0.782652;-0.175785;0.424747
29357;4.860326;-1.982746;-0.783184;-0.744400;-0.680363;-0.566785;-0.204590;-0.664307;0.412598;0.425585;0.783267;-0.176980;0.417191
29358;4.431854;-1.568811;-1.184256;-0.260635;-0.554129;-0.183636;-0.206055;-0.663330;0.406006;0.427142;0.784546;-0.178542;0.412505
29359;4.320544;-1.128859;-1.134321;0.310355;-0.217103;0.152350;-0.198975;-0.659424;0.404053;0.424303;0.786182;-0.179141;0.412060
29360;4.148248;-0.069066;-0.376123;0.453946;0.187125;0.398225;-0.210449;-0.651611;0.413818;0.420271;0.786557;-0.179431;0.415337
29361;3.727350;3.010669;-0.284477;0.394819;0.467810;0.511097;-0.221680;-0.650146;0.420898;0.416640;0.785556;-0.179679;0.420747
29362;3.293410;9.089422;-1.962451;0.288466;0.596603;0.527846;-0.233398;-0.639160;0.414551;0.413818;0.783674;-0.179952;0.426880
29363;4.663969;14.844720;-4.683906;0.058873;0.190238;0.464654;-0.230469;-0.639893;0.414307;0.412100;0.782516;-0.182016;0.429782
29364;8.578870;15.179254;-4.657088;-0.677253;-0.177041;0.472857;-0.230469;-0.649170;0.409180;0.414587;0.780109;-0.188013;0.429183
29365;12.070529;12.686469;-4.297873;-1.198278;-0.123901;0.659496;-0.236084;-0.646484;0.401367;0.419843;0.775352;-0.196876;0.428719
29366;11.952711;9.673135;-3.670464;-1.330016;-0.241155;0.709498;-0.242432;-0.659912;0.379395;0.425521;0.770359;-0.206908;0.427397
29367;10.090068;5.998574;-4.367997;-0.590643;-0.664700;0.411430;-0.241943;-0.651123;0.375732;0.426738;0.769922;-0.213869;0.423527
29368;9.611698;1.791434;-4.418182;0.642050;-1.133629;0.215453;-0.234863;-0.652832;0.396729;0.419863;0.775802;-0.216872;0.418107
29369;11.984127;-1.762664;-3.027975;1.113206;-1.031858;0.646736;-0.231689;-0.639404;0.404541;0.408558;0.782078;-0.220641;0.415636
29370;18.704532;1.168930;1.947454;1.175259;-0.529521;1.410308;-0.243164;-0.620361;0.413330;0.395034;0.785249;-0.227423;0.419059
29371;19.723172;10.270152;-3.075924;0.483677;0.504508;1.419828;-0.260498;-0.607910;0.420166;0.387876;0.782345;-0.233231;0.427892
29372;10.483440;9.347079;-4.862037;-0.918832;0.168014;0.074750;-0.260254;-0.614990;0.414062;0.393960;0.778630;-0.236324;0.427414
29373;7.541388;-1.950547;3.881387;-1.707307;0.166930;-0.250840;-0.267334;-0.632812;0.396973;0.406265;0.772866;-0.240082;0.424250
29374;5.163315;-6.798612;-1.957871;0.018902;0.400156;0.345148;-0.273682;-0.629150;0.396484;0.405764;0.770836;-0.240758;0.428022
29375;5.407871;-6.619096;-4.615952;1.349127;-0.141523;1.436456;-0.279541;-0.615967;0.409668;0.391675;0.772936;-0.245509;0.434610
29376;8.257663;-5.777062;-4.836168;1.810224;-0.064804;2.125264;-0.310547;-0.586914;0.433838;0.372114;0.774544;-0.252693;0.444701
29377;12.834159;-3.031075;-6.215772;2.103231;-0.187447;1.774166;-0.319824;-0.560791;0.457031;0.351499;0.777843;-0.256787;0.453286
29378;11.032636;1.038246;-6.266427;2.097787;0.086729;1.063473;-0.325928;-0.540283;0.478760;0.334024;0.781259;-0.255388;0.461345
29379;8.609212;3.302107;-3.583168;1.754373;0.136168;0.863154;-0.344482;-0.518066;0.488770;0.319549;0.783703;-0.253791;0.468282
29380;8.929564;2.681292;-3.341120;1.316465;0.089359;1.014270;-0.353027;-0.487549;0.492676;0.307170;0.784666;-0.254956;0.474281
29381;9.325070;1.469543;-3.583219;1.072772;0.081652;1.207196;-0.359863;-0.482910;0.505127;0.295549;0.784481;-0.258319;0.480117
29382;9.188440;0.888150;-3.970822;1.019406;0.185471;1.298721;-0.371582;-0.469238;0.509033;0.284077;0.783407;-0.262191;0.486651
29383;8.325059;0.584987;-4.220745;0.928616;0.250114;1.422860;-0.378662;-0.448975;0.515869;0.272778;0.781432;-0.267039;0.493605
29384;8.281452;0.197264;-3.813429;0.864446;0.224489;1.547484;-0.393799;-0.435303;0.528320;0.261269;0.778974;-0.272968;0.500426
29385;8.906905;-0.069419;-3.338499;0.706120;0.267188;1.617039;-0.412109;-0.412109;0.528809;0.250535;0.775664;-0.279859;0.507204
29386;8.950901;-0.263750;-3.134121;0.468139;0.344785;1.571883;-0.427002;-0.394775;0.524414;0.241658;0.771475;-0.287246;0.513729
29387;8.097931;0.477703;-2.805767;0.286008;0.361209;1.479889;-0.442139;-0.381348;0.534912;0.234340;0.766930;-0.294738;0.519646
29388;8.050930;0.891087;-2.459404;0.090438;0.318757;1.413292;-0.451416;-0.377441;0.526123;0.228419;0.762232;-0.302689;0.524601
29389;8.253616;0.695042;-2.314718;-0.133553;0.311560;1.434865;-0.458496;-0.365479;0.522705;0.223774;0.756973;-0.311725;0.528909
29390;8.563382;-0.238639;-2.429021;-0.084640;0.300219;1.487982;-0.465576;-0.347168;0.527100;0.218523;0.751600;-0.320852;0.533291
29391;9.187268;-0.828673;-2.811103;0.262594;0.268869;1.467464;-0.485107;-0.335205;0.527344;0.211069;0.746935;-0.328313;0.538283
29392;9.400694;-0.786051;-2.869050;0.756917;0.285201;1.320533;-0.498535;-0.326416;0.516357;0.201207;0.743347;-0.332561;0.544384
29393;9.220925;-0.106113;-2.826743;1.163008;0.346681;1.114968;-0.497559;-0.293945;0.528320;0.189896;0.740600;-0.333533;0.551550
29394;8.989765;1.241383;-3.555697;1.353994;0.337507;0.931784;-0.513916;-0.277100;0.527588;0.178186;0.738565;-0.332446;0.558794
29395;8.744866;2.238816;-4.091483;1.259600;0.327470;0.979117;-0.515625;-0.257568;0.531738;0.166775;0.736169;-0.332040;0.565678
29396;7.338592;2.950983;-3.715898;1.070220;0.377569;1.154760;-0.523926;-0.243896;0.532715;0.155807;0.732656;-0.333470;0.572483
29397;7.654995;4.424381;-3.074606;0.924393;0.388953;1.016455;-0.531250;-0.217041;0.533447;0.146398;0.729170;-0.334680;0.578678
29398;9.166103;3.303067;-3.341413;0.705026;0.082982;0.570571;-0.541748;-0.205566;0.530029;0.139606;0.728068;-0.334571;0.581799
29399;10.324529;2.396044;-6.139759;0.685556;-0.114821;0.267561;-0.534180;-0.203613;0.540527;0.133845;0.728716;-0.332925;0.583283
29400;10.582320;2.934962;-7.361341;0.485698;-0.055259;0.205957;-0.532227;-0.197021;0.540771;0.129762;0.729006;-0.331798;0.584485
29401;11.004101;2.077069;-5.900724;0.457783;0.096723;0.163329;-0.539551;-0.186035;0.530273;0.126476;0.728635;-0.330375;0.586470
29402;11.659002;1.544581;-4.793119;0.712733;0.195342;-0.011478;-0.531494;-0.177734;0.533936;0.122767;0.728517;-0.326529;0.589551
29403;12.635907;3.562429;-5.488978;1.075566;0.169909;-0.302485;-0.534424;-0.174316;0.543945;0.118208;0.729644;-0.319134;0.593127
29404;10.662057;4.079286;-5.464603;0.918328;0.172616;-0.596289;-0.538330;-0.165771;0.548096;0.116057;0.731325;-0.310692;0.595956
29405;8.273434;5.791061;-3.852944;0.722458;0.062195;-0.947414;-0.533936;-0.170166;0.550293;0.116549;0.734212;-0.301154;0.597206
29406;5.553180;5.375682;-2.738384;-0.172587;-0.036276;-1.393068;-0.532471;-0.188477;0.537354;0.124477;0.737754;-0.293393;0.595101
29407;4.752550;4.044330;-1.763622;-0.955163;-0.185985;-1.798040;-0.519043;-0.210449;0.537842;0.138835;0.742059;-0.287106;0.589612
29408;7.778558;1.585606;-1.672490;-1.316721;-0.608769;-2.393845;-0.513672;-0.232422;0.542969;0.157289;0.749136;-0.279271;0.579709
29409;13.820455;0.074881;-2.907259;-1.167681;-0.819831;-3.047403;-0.487793;-0.268066;0.536133;0.177375;0.758443;-0.266721;0.567593
29410;16.953642;-2.272940;-4.279292;-1.137150;-0.842146;-3.060450;-0.458984;-0.308594;0.544189;0.197142;0.767323;-0.253763;0.554937
29411;16.309799;-1.252162;-4.833826;-1.449175;-0.588594;-2.426744;-0.436768;-0.332031;0.541748;0.216374;0.772644;-0.245710;0.543903
29412;14.142061;-2.593110;-2.623566;-1.336569;-0.351530;-2.236876;-0.424316;-0.363770;0.526611;0.234392;0.776287;-0.237813;0.534681
29413;12.936952;-1.498795;-1.945431;-1.392174;-0.417987;-2.443782;-0.405029;-0.391113;0.530273;0.253435;0.780114;-0.228834;0.524240
29414;12.667084;-0.540354;-1.698901;-1.513941;-0.332306;-2.666266;-0.385010;-0.418701;0.518311;0.274248;0.783248;-0.218623;0.513337
29415;12.826844;1.073618;-2.395803;-1.648852;-0.347994;-2.348637;-0.363037;-0.453613;0.510254;0.294384;0.785067;-0.210963;0.502497
29416;11.733101;2.085283;-3.166335;-1.950714;-0.138087;-1.971821;-0.348633;-0.476318;0.490723;0.315120;0.784158;-0.206400;0.493148
29417;10.594843;1.026303;-3.740653;-2.298681;-0.072553;-1.724360;-0.333496;-0.509033;0.473877;0.337050;0.781200;-0.204599;0.484008
29418;10.233590;0.041444;-3.356608;-2.351755;-0.063708;-1.540568;-0.326172;-0.529541;0.449463;0.358409;0.777299;-0.204072;0.475083
29419;9.604843;-0.337792;-2.597910;-2.156885;-0.084383;-1.445779;-0.313721;-0.556396;0.442871;0.377911;0.773501;-0.203351;0.466400
29420;8.171196;0.296984;-2.875689;-1.662899;-0.202678;-1.500828;-0.294678;-0.577637;0.421875;0.394085;0.771488;-0.200650;0.457429
29421;6.734057;-0.525940;-3.356497;-0.866376;-0.543242;-1.574466;-0.278564;-0.585449;0.416260;0.404731;0.773279;-0.195505;0.447224
29422;6.428969;-1.135151;-2.493949;-0.142308;-0.760841;-1.523253;-0.252686;-0.586426;0.417969;0.410073;0.778064;-0.188688;0.436867
29423;6.918136;-1.127156;-1.315131;0.047946;-0.800923;-1.221708;-0.247314;-0.599121;0.424805;0.412945;0.783032;-0.183245;0.427503
29424;7.023419;-1.324714;-0.659086;-0.104645;-0.757121;-0.804818;-0.237305;-0.601807;0.423584;0.415345;0.786587;-0.180901;0.419577
29425;6.679213;-1.335895;-0.814146;-0.438941;-0.644703;-0.350186;-0.220703;-0.604248;0.419434;0.418485;0.787850;-0.182310;0.413432
29426;6.360991;-0.857295;-1.217746;-0.721789;-0.470649;0.020099;-0.218018;-0.604004;0.418457;0.422448;0.786921;-0.186515;0.409273
29427;5.885529;-0.321807;-1.323584;-0.749588;-0.299396;0.243986;-0.229736;-0.613525;0.408447;0.426072;0.784922;-0.191676;0.406966
29428;5.569287;0.239931;-1.838743;-0.548904;-0.164876;0.404074;-0.224609;-0.617920;0.406738;0.428035;0.782889;-0.196723;0.406412
29429;5.359966;1.748983;-2.700489;-0.163015;-0.009547;0.554371;-0.226318;-0.606934;0.402100;0.427212;0.781438;-0.200888;0.408030
29430;5.040416;4.723062;-2.201077;0.267631;0.165365;0.703296;-0.243652;-0.609375;0.412109;0.423356;0.780651;-0.203932;0.412025
29431;5.705517;7.583005;-1.669546;0.351104;0.393228;0.941465;-0.258789;-0.601807;0.413330;0.418501;0.778926;-0.207422;0.418458
29432;7.993393;10.455452;-2.235225;0.255699;0.474373;1.174711;-0.271484;-0.586670;0.407471;0.413554;0.776106;-0.212450;0.426025
29433;9.839401;13.632737;-4.184918;0.013682;0.497943;1.280849;-0.289062;-0.584229;0.405029;0.409789;0.772087;-0.218907;0.433629
29434;9.211442;12.578033;-6.122884;-0.596731;-0.115190;1.023372;-0.289062;-0.585693;0.394287;0.409722;0.768583;-0.227974;0.435242
29435;9.436158;9.649188;-6.579436;-0.729384;-0.830789;0.541999;-0.288818;-0.591064;0.394287;0.410852;0.768062;-0.236852;0.430328
29436;12.435058;6.443936;-5.383059;-0.094692;-1.122294;0.067042;-0.286133;-0.588379;0.394775;0.409011;0.771625;-0.241387;0.423127
29437;21.499983;2.585418;-2.674995;0.255186;-0.864256;0.270350;-0.285156;-0.587891;0.402100;0.404693;0.775005;-0.245100;0.418948
29438;21.348256;3.060754;1.927702;-0.262157;0.762574;0.603769;-0.309082;-0.583740;0.397461;0.405844;0.770223;-0.247276;0.425325
29439;10.414782;6.067731;0.601858;-1.012481;0.306712;-0.114626;-0.301025;-0.581055;0.381104;0.413387;0.765935;-0.249024;0.424785
29440;6.073145;-1.928898;-0.043403;-0.667109;0.446816;-0.389165;-0.301514;-0.600098;0.381836;0.419963;0.762856;-0.247294;0.424886
29441;1.876726;-6.566176;-3.994024;1.018465;0.349912;0.136295;-0.303223;-0.586914;0.390137;0.413731;0.764881;-0.243262;0.429659
29442;4.841282;-7.924611;-5.395877;2.156479;-0.674518;1.266117;-0.314453;-0.564453;0.416504;0.394005;0.771999;-0.245835;0.433983
29443;12.675581;-7.022062;-4.507583;2.043700;-0.652014;2.288330;-0.336426;-0.538574;0.440918;0.371120;0.776130;-0.255194;0.441325
29444;15.260460;-2.209687;-5.631686;1.859445;-0.033242;1.956193;-0.349609;-0.518799;0.452881;0.351734;0.777658;-0.261032;0.450992
29445;9.660647;3.822186;-3.684547;1.593560;0.454118;1.012486;-0.352051;-0.496094;0.470703;0.338536;0.778327;-0.260236;0.460301
29446;7.807212;3.727840;-2.167635;1.004076;0.209475;0.915643;-0.375977;-0.486084;0.468750;0.328935;0.778329;-0.261710;0.466382
29447;8.529991;0.958839;-3.384668;0.573241;0.083074;1.096928;-0.382568;-0.471680;0.478271;0.321111;0.777154;-0.266348;0.471146
29448;8.841122;0.001920;-3.943951;0.491929;0.076121;1.230486;-0.391602;-0.456543;0.484375;0.313235;0.775403;-0.272160;0.475987
29449;8.626116;0.604669;-4.193371;0.537278;0.160773;1.267485;-0.400391;-0.455322;0.480225;0.305069;0.773251;-0.277778;0.481514
29450;7.906169;0.800116;-3.958665;0.565913;0.124978;1.283507;-0.416504;-0.433350;0.488037;0.296529;0.771173;-0.283441;0.486851
29451;8.262275;-0.072741;-3.790775;0.628792;0.010364;1.250668;-0.427734;-0.418701;0.496094;0.287404;0.769689;-0.288884;0.491451
29452;8.978069;-1.287555;-3.388597;0.725067;-0.044648;1.248746;-0.429443;-0.400391;0.500000;0.277496;0.768556;-0.294013;0.495856
29453;9.531757;-1.484741;-3.235536;0.794459;0.043324;1.252460;-0.445068;-0.392578;0.502441;0.267301;0.767096;-0.298636;0.500930
29454;9.041156;-0.097624;-3.110732;0.751743;0.221462;1.212668;-0.453857;-0.372070;0.503906;0.257946;0.764780;-0.302745;0.506874
29455;8.631791;0.879112;-2.673825;0.578434;0.314280;1.174839;-0.453125;-0.360352;0.513428;0.250053;0.761690;-0.307105;0.512823
29456;8.714064;1.187681;-2.397126;0.322473;0.288836;1.193116;-0.473877;-0.348877;0.512451;0.243612;0.758039;-0.312690;0.517934
29457;8.581865;0.893276;-2.755246;0.232429;0.254872;1.242402;-0.484863;-0.335449;0.505859;0.237411;0.754136;-0.319007;0.522637
29458;8.420149;0.373266;-3.117767;0.392124;0.230351;1.271730;-0.492920;-0.326416;0.515869;0.229986;0.750487;-0.324822;0.527605
29459;8.754200;0.003786;-3.462903;0.778498;0.234152;1.194628;-0.501953;-0.308105;0.507568;0.220462;0.747668;-0.328403;0.533423
29460;8.891592;0.358999;-3.518059;1.067848;0.280004;1.027249;-0.513428;-0.297852;0.518066;0.209973;0.745522;-0.329521;0.539930
29461;8.922031;1.008669;-3.191478;0.994901;0.300451;0.874732;-0.518799;-0.274902;0.511475;0.200649;0.743469;-0.329936;0.546018
29462;8.928224;1.463433;-2.847118;0.738499;0.279362;0.816280;-0.520264;-0.253174;0.522949;0.193100;0.741164;-0.331153;0.551113
29463;9.333410;1.807568;-2.856066;0.568403;0.234816;0.799749;-0.535645;-0.243896;0.512939;0.186539;0.738779;-0.333089;0.555393
29464;8.581211;1.849906;-3.339666;0.555621;0.294267;0.849487;-0.533691;-0.232666;0.518066;0.179983;0.735905;-0.335272;0.560038
29465;7.208979;2.276039;-3.718837;0.763671;0.375392;0.932774;-0.546631;-0.214111;0.513916;0.171972;0.732666;-0.336837;0.565833
29466;7.394592;3.325534;-3.371770;0.972434;0.356728;0.774147;-0.559570;-0.202393;0.523438;0.163366;0.730179;-0.336435;0.571805
29467;8.596896;2.610812;-3.201737;0.787113;0.096820;0.382054;-0.554199;-0.190918;0.524170;0.157016;0.729720;-0.334850;0.575092
29468;9.345477;2.371369;-5.027120;0.439295;-0.097687;0.163726;-0.552490;-0.185547;0.524658;0.153282;0.730324;-0.333843;0.575918
29469;9.634421;3.122608;-5.867677;0.169197;-0.054568;0.049643;-0.544678;-0.176270;0.522949;0.151861;0.730690;-0.333376;0.576099
29470;10.512910;2.146140;-5.255267;0.225432;-0.004083;-0.076858;-0.552246;-0.175293;0.517578;0.150848;0.731240;-0.331800;0.576578
29471;12.522034;1.912976;-5.130796;0.574303;-0.031863;-0.259136;-0.549561;-0.170410;0.536133;0.148508;0.732857;-0.327464;0.577611
29472;11.767971;2.374247;-5.284158;0.853037;0.040145;-0.488813;-0.552734;-0.176758;0.535400;0.145764;0.735068;-0.320274;0.579528
29473;10.870372;3.839267;-4.439898;0.789680;0.005120;-0.793528;-0.558105;-0.174561;0.537842;0.144778;0.738130;-0.311538;0.580643
29474;8.469500;5.316378;-4.345562;0.321784;0.069479;-1.343013;-0.545654;-0.176758;0.535400;0.149483;0.741666;-0.301567;0.580210
29475;5.657695;4.527505;-2.666924;-0.289461;0.050888;-1.681562;-0.544922;-0.199707;0.532715;0.159535;0.745260;-0.292424;0.577602
29476;6.074790;2.019566;-0.942253;-0.689785;-0.243829;-2.086491;-0.534180;-0.219971;0.529053;0.173264;0.750526;-0.283000;0.571490
29477;9.851201;0.115591;-1.414189;-0.725351;-0.483203;-2.712581;-0.529297;-0.247559;0.539795;0.189555;0.758015;-0.270042;0.562636
29478;14.861042;-1.482618;-2.975426;-0.622858;-0.532199;-3.119435;-0.510010;-0.293945;0.540771;0.206873;0.766319;-0.253936;0.552698
29479;16.527272;-1.504098;-3.974987;-0.751055;-0.344299;-2.799529;-0.497070;-0.312500;0.541260;0.223798;0.772349;-0.239973;0.543878
29480;15.211971;-0.993077;-3.284250;-0.634446;-0.203155;-2.274438;-0.472900;-0.333252;0.537354;0.237763;0.776524;-0.228482;0.536913
29481;13.071946;-0.721338;-2.906951;-0.542294;-0.337015;-2.274806;-0.462402;-0.353027;0.539062;0.250784;0.781173;-0.216755;0.529050
29482;13.365955;-0.993554;-1.909679;-0.971936;-0.503731;-2.398276;-0.446533;-0.387207;0.531494;0.266733;0.785537;-0.206375;0.518839
29483;13.635219;0.324580;-2.054031;-1.304041;-0.467415;-2.263133;-0.425049;-0.410645;0.529541;0.284203;0.788386;-0.198139;0.508347
29484;12.503774;1.777735;-2.915899;-1.481315;-0.091920;-2.020192;-0.415527;-0.444092;0.518799;0.302295;0.788454;-0.191271;0.500373
29485;10.814857;1.718167;-3.200047;-1.848851;-0.088368;-1.768793;-0.407471;-0.464355;0.505859;0.321624;0.786825;-0.187496;0.492249
29486;10.424171;0.810206;-3.598784;-1.994180;-0.205610;-1.607069;-0.391113;-0.492676;0.497559;0.340910;0.784673;-0.185608;0.483341
29487;10.010075;-0.243655;-3.738003;-1.909646;-0.106062;-1.503445;-0.375732;-0.529053;0.477783;0.359230;0.781856;-0.183699;0.475299
29488;9.205431;0.799566;-2.412851;-1.637975;0.063144;-1.398575;-0.369873;-0.542725;0.459961;0.375489;0.778733;-0.180829;0.468917
29489;7.731724;0.155709;-1.517761;-1.151874;-0.373264;-1.328863;-0.346436;-0.562500;0.456543;0.387559;0.778516;-0.177833;0.460528
29490;7.134384;-0.525661;-2.556853;-1.084239;-0.315260;-1.113785;-0.342529;-0.575195;0.442383;0.398371;0.777819;-0.175754;0.453220
29491;6.438566;-0.502634;-1.761423;-0.935066;-0.392158;-0.753089;-0.327148;-0.586914;0.438477;0.406681;0.777268;-0.175686;0.446766
29492;5.795265;-1.324144;-1.036714;-0.895355;-0.710444;-0.338712;-0.323730;-0.599609;0.438965;0.412681;0.777346;-0.179219;0.439668
29493;5.792613;-1.824673;-1.574100;-0.944797;-0.742646;0.019890;-0.316406;-0.607910;0.431885;0.417594;0.776758;-0.185355;0.433480
29494;5.619298;-2.109395;-1.747960;-0.717881;-0.699203;0.329306;-0.307129;-0.606689;0.422852;0.419948;0.776255;-0.192512;0.428964
29495;5.598285;-2.317801;-1.663503;-0.337499;-0.562093;0.632015;-0.313965;-0.614990;0.430420;0.418947;0.776055;-0.199782;0.426978
29496;5.452552;-2.252152;-1.314219;0.079862;-0.320204;0.906850;-0.322021;-0.607178;0.438721;0.414642;0.775944;-0.206493;0.428186
29497;5.649057;-1.121075;-1.218068;0.398039;-0.011146;1.169937;-0.333496;-0.599365;0.426025;0.407833;0.775310;-0.212689;0.432816
29498;6.904049;1.958882;0.023156;0.420274;0.312370;1.482818;-0.352783;-0.590088;0.437012;0.400267;0.772920;-0.219702;0.440581
29499;8.624929;6.426136;0.896472;0.199372;0.581639;1.747469;-0.374756;-0.579834;0.439941;0.393562;0.768160;-0.228287;0.450471
29500;11.037692;12.185943;-0.287805;0.008502;0.983424;1.759868;-0.401123;-0.567383;0.427490;0.388698;0.761040;-0.236285;0.462495
29501;8.917459;18.629761;-9.318116;0.741389;0.452362;0.815693;-0.409668;-0.553955;0.437256;0.381712;0.760053;-0.237135;0.469449
29502;9.485352;15.551431;-8.462212;0.361584;-0.544015;-0.254772;-0.411621;-0.553711;0.446045;0.379332;0.763830;-0.235831;0.465891
29503;9.648550;9.494418;-4.907442;-0.210013;-0.721555;-0.361956;-0.400879;-0.558594;0.448975;0.380649;0.766676;-0.236604;0.459710
29504;8.483275;5.211523;-4.185983;0.008128;-0.809877;-0.562188;-0.383301;-0.560059;0.457764;0.381145;0.770904;-0.235524;0.452729
29505;10.712997;0.490559;-4.163938;0.475198;-1.174043;-0.646621;-0.368408;-0.569580;0.463379;0.378206;0.778076;-0.233272;0.444007
29506;17.128440;-2.905924;-1.996210;0.587597;-1.150089;-0.023218;-0.359619;-0.558838;0.473389;0.372227;0.784201;-0.234545;0.437567
29507;22.984470;-0.079188;1.177198;-0.025409;0.205178;1.195326;-0.373779;-0.555664;0.474609;0.368413;0.781010;-0.241797;0.442527
29508;14.839919;9.019178;-1.650556;0.018010;1.677228;0.861419;-0.401123;-0.549316;0.467285;0.368446;0.773052;-0.242160;0.456067
29509;4.277655;8.225801;-3.404511;-1.006243;0.957855;-0.348538;-0.392822;-0.557861;0.444092;0.378158;0.766972;-0.240777;0.459105
29510;3.283811;0.145398;-0.064629;-2.826091;-0.629308;-0.120377;-0.392334;-0.580811;0.423096;0.395308;0.760496;-0.252723;0.448897
29511;5.969802;-3.886389;-1.442013;-1.533874;-0.757341;0.562210;-0.389893;-0.592529;0.418701;0.401286;0.757010;-0.264483;0.442667
29512;8.170340;-6.887567;-5.059408;0.612555;-0.485254;1.098521;-0.407715;-0.583740;0.430664;0.392270;0.758381;-0.270760;0.444603
29513;9.645310;-7.615476;-4.325365;2.160117;0.070507;1.442601;-0.421631;-0.563477;0.446289;0.373329;0.761747;-0.271591;0.454538
