// Start Time: Unknown
// Update Rate: 60.0Hz
// Filter Profile: human (46.1)
// Firmware Version: 4.4.0
PacketCounter;Acc_X;Acc_Y;Acc_Z;Gyr_X;Gyr_Y;Gyr_Z;Mag_X;Mag_Y;Mag_Z;Quat_q0;Quat_q1;Quat_q2;Quat_q3
28597;7.817652;-0.377272;5.947391;-0.008850;-0.011432;-0.000015;-0.811035;0.119873;0.034424;0.081443;-0.443945;-0.019043;-0.892142
28598;7.809747;-0.390176;5.960177;-0.002962;-0.008180;0.000151;-0.812744;0.120361;0.038086;0.081432;-0.444007;-0.019025;-0.892112
28599;7.797380;-0.421891;5.968515;0.005092;-0.008234;-0.003161;-0.817383;0.120850;0.041260;0.081426;-0.444069;-0.019080;-0.892081
28600;7.791906;-0.412861;5.939988;0.005706;-0.008470;-0.005310;-0.811768;0.121094;0.043701;0.081406;-0.444127;-0.019147;-0.892053
28601;7.816036;-0.446028;5.923584;-0.002091;-0.010225;-0.006461;-0.810303;0.134033;0.030762;0.081350;-0.444202;-0.019161;-0.892020
28602;7.837007;-0.448566;5.916582;-0.003785;-0.013439;-0.005530;-0.812256;0.122559;0.037109;0.081294;-0.444304;-0.019159;-0.891974
28603;7.844969;-0.483536;5.918725;-0.012177;-0.013507;-0.007722;-0.813232;0.118652;0.039551;0.081193;-0.444413;-0.019100;-0.891931
28604;7.819854;-0.418594;5.941782;-0.013153;-0.014841;-0.007889;-0.814941;0.128174;0.039795;0.081089;-0.444534;-0.019029;-0.891881
28605;7.819224;-0.390925;5.917144;-0.014959;-0.012494;-0.013554;-0.814697;0.120117;0.047363;0.080938;-0.444638;-0.018963;-0.891844
28606;7.813079;-0.406125;5.896951;-0.010680;-0.013058;-0.013948;-0.823730;0.115967;0.034912;0.080799;-0.444744;-0.018929;-0.891805
28607;7.857977;-0.391311;5.889378;-0.002843;-0.007134;-0.013451;-0.812012;0.115479;0.031738;0.080696;-0.444803;-0.018946;-0.891785
28608;7.895347;-0.415933;5.919719;-0.000479;0.002729;-0.014642;-0.810791;0.119629;0.040771;0.080594;-0.444790;-0.018978;-0.891799
28609;7.892279;-0.461878;5.939005;-0.008230;0.016790;-0.013711;-0.814453;0.121094;0.041504;0.080474;-0.444682;-0.018937;-0.891865
28610;7.811363;-0.374936;5.922702;-0.021379;0.025067;-0.007226;-0.810791;0.116943;0.039062;0.080357;-0.444526;-0.018762;-0.891957
28611;7.843477;-0.349441;5.878156;-0.006115;0.019532;-0.010622;-0.822266;0.125732;0.037354;0.080271;-0.444400;-0.018717;-0.892029
28612;7.870299;-0.364558;5.917204;-0.016351;0.031821;-0.003637;-0.814697;0.117188;0.033936;0.080201;-0.444196;-0.018564;-0.892139
28613;7.764730;-0.424382;5.896503;-0.008149;0.030384;-0.001006;-0.819092;0.120117;0.039795;0.080176;-0.443999;-0.018467;-0.892242
28614;7.689688;-0.475471;5.902296;-0.016206;0.029180;-0.003429;-0.816406;0.120850;0.030273;0.080107;-0.443820;-0.018316;-0.892341
28615;7.769557;-0.443734;5.833857;-0.010232;0.030582;-0.010478;-0.806152;0.117188;0.039062;0.080012;-0.443614;-0.018223;-0.892453
28616;7.769163;-0.368706;5.842541;-0.010673;0.017959;-0.014043;-0.814941;0.116455;0.036621;0.079882;-0.443509;-0.018150;-0.892518
28617;7.776776;-0.380564;5.886193;-0.016094;0.021109;-0.008306;-0.813721;0.114258;0.035645;0.079778;-0.443394;-0.018014;-0.892588
28618;7.710706;-0.417176;5.956741;-0.031969;0.041483;-0.006428;-0.803223;0.115234;0.032471;0.079629;-0.443138;-0.017744;-0.892734
28619;7.677505;-0.428453;5.981876;-0.022461;0.050656;-0.006833;-0.813721;0.127441;0.041016;0.079508;-0.442786;-0.017537;-0.892923
28620;7.675918;-0.407091;6.072973;-0.017093;0.068165;-0.009632;-0.821533;0.123291;0.039062;0.079414;-0.442321;-0.017351;-0.893165
28621;7.801022;-0.393329;6.040341;-0.020525;0.067995;-0.010140;-0.818359;0.118164;0.036377;0.079307;-0.441846;-0.017144;-0.893414
28622;7.850968;-0.426121;5.995818;-0.030321;0.069849;-0.014017;-0.810059;0.123291;0.036621;0.079124;-0.441349;-0.016887;-0.893681
28623;7.765851;-0.419185;5.994155;-0.033355;0.082349;-0.010954;-0.809326;0.124512;0.036865;0.078952;-0.440763;-0.016583;-0.893991
28624;7.816878;-0.375776;6.035026;-0.021428;0.065360;-0.004379;-0.822021;0.125488;0.030762;0.078874;-0.440301;-0.016353;-0.894230
28625;7.791335;-0.474112;6.142851;-0.020320;0.043984;-0.005461;-0.812012;0.127197;0.031250;0.078813;-0.439995;-0.016143;-0.894389
28626;7.702621;-0.459786;6.110018;-0.030558;0.055738;-0.000006;-0.823486;0.121826;0.027832;0.078747;-0.439598;-0.015825;-0.894596
28627;7.734057;-0.439214;6.036968;-0.013452;0.045081;-0.000193;-0.820557;0.121094;0.034668;0.078752;-0.439254;-0.015643;-0.894768
28628;7.775749;-0.425602;6.082105;0.007046;0.023084;-0.014287;-0.806641;0.127197;0.030273;0.078716;-0.439078;-0.015693;-0.894857
28629;7.768673;-0.367253;5.993510;-0.002791;0.021971;-0.011814;-0.809082;0.123535;0.029785;0.078647;-0.438903;-0.015649;-0.894949
28630;7.780143;-0.382315;6.097194;0.007625;0.014476;-0.015149;-0.819580;0.120117;0.028076;0.078582;-0.438780;-0.015712;-0.895014
28631;7.721743;-0.426856;6.113556;-0.021689;0.014945;-0.018791;-0.820557;0.119141;0.028320;0.078397;-0.438664;-0.015575;-0.895090
28632;7.680380;-0.447341;6.055429;-0.029421;0.011124;-0.018306;-0.806885;0.126221;0.037842;0.078185;-0.438576;-0.015384;-0.895154
28633;7.701467;-0.375794;6.056720;-0.017987;-0.001295;-0.019124;-0.819580;0.117676;0.028320;0.078008;-0.438624;-0.015290;-0.895148
28634;7.733656;-0.394842;6.153936;-0.015262;0.020084;-0.022416;-0.811279;0.117676;0.028320;0.077808;-0.438454;-0.015218;-0.895250
28635;7.577629;-0.433428;6.133478;-0.044047;0.051330;-0.016547;-0.815674;0.120850;0.024414;0.077525;-0.438068;-0.014892;-0.895469
28636;7.673260;-0.376904;5.994547;-0.039634;0.046631;-0.013517;-0.822998;0.118408;0.030762;0.077317;-0.437687;-0.014578;-0.895678
28637;7.808888;-0.372906;6.080874;-0.025448;0.050178;-0.022708;-0.811279;0.121338;0.027100;0.077096;-0.437304;-0.014422;-0.895887
28638;7.744054;-0.415130;6.087562;-0.037805;0.049587;-0.024851;-0.811768;0.115479;0.031250;0.076802;-0.436934;-0.014173;-0.896097
28639;7.575496;-0.512421;6.052167;-0.038373;0.032045;-0.034830;-0.815186;0.123779;0.027344;0.076384;-0.436722;-0.013986;-0.896239
28640;7.556241;-0.510690;6.199186;-0.012411;0.019017;-0.038664;-0.813477;0.115723;0.024902;0.076122;-0.436567;-0.013985;-0.896337
28641;7.655735;-0.427223;6.096703;-0.037889;0.052371;-0.022305;-0.815674;0.115234;0.023682;0.075822;-0.436152;-0.013719;-0.896568
28642;7.765321;-0.437458;6.090912;-0.022444;0.043866;-0.016440;-0.812988;0.120850;0.025879;0.075624;-0.435786;-0.013554;-0.896765
28643;7.842662;-0.398433;6.136212;-0.013366;0.022920;-0.022066;-0.819580;0.122803;0.026855;0.075469;-0.435603;-0.013482;-0.896868
28644;7.782404;-0.391599;6.122350;-0.012678;0.031765;-0.021228;-0.825684;0.130371;0.025879;0.075365;-0.435361;-0.013411;-0.896996
28645;7.643219;-0.426887;6.035271;-0.027588;0.032897;-0.022253;-0.813965;0.116699;0.027832;0.075303;-0.435113;-0.013223;-0.897124
28646;7.619335;-0.421923;6.122589;-0.021881;0.023510;-0.022871;-0.814209;0.117676;0.022705;0.075071;-0.434966;-0.013111;-0.897216
28647;7.678677;-0.407862;6.147852;-0.035364;0.023365;-0.018001;-0.817871;0.102783;0.020020;0.074836;-0.434786;-0.012867;-0.897327
28648;7.705453;-0.399873;6.131677;-0.043554;0.021283;-0.015848;-0.812500;0.118408;0.029541;0.074414;-0.434594;-0.012590;-0.897458
28649;7.651097;-0.403621;6.097585;-0.038872;0.016859;-0.018977;-0.820557;0.114014;0.030273;0.074178;-0.434537;-0.012337;-0.897510
28650;7.633205;-0.406976;6.164656;-0.021155;0.017662;-0.018443;-0.815918;0.120850;0.022949;0.073981;-0.434458;-0.012235;-0.897565
28651;7.626186;-0.399278;6.185923;-0.017605;0.023008;-0.023209;-0.816406;0.120850;0.027100;0.073834;-0.434275;-0.012140;-0.897667
28652;7.647059;-0.379635;6.142647;-0.010348;0.024387;-0.021295;-0.809082;0.117432;0.022949;0.073738;-0.434119;-0.012099;-0.897751
28653;7.644634;-0.377943;6.145769;-0.008608;0.025557;-0.020494;-0.824951;0.116699;0.016602;0.073582;-0.433922;-0.012062;-0.897860
28654;7.675574;-0.450225;6.151423;-0.024776;0.031947;-0.013634;-0.812012;0.115723;0.016846;0.073455;-0.433604;-0.011891;-0.898026
28655;7.598148;-0.422915;6.101607;-0.038243;0.033306;-0.011971;-0.814453;0.108887;0.029541;0.073238;-0.433309;-0.011596;-0.898190
28656;7.548736;-0.437293;6.142952;-0.040960;0.034139;-0.006157;-0.812988;0.113281;0.025146;0.072980;-0.433150;-0.011304;-0.898291
28657;7.588185;-0.399331;6.165809;-0.036438;0.028180;-0.008859;-0.819336;0.110840;0.025879;0.072778;-0.432988;-0.011036;-0.898389
28658;7.667992;-0.413730;6.239826;-0.015301;-0.004947;-0.018718;-0.822510;0.113770;0.023682;0.072556;-0.433063;-0.011001;-0.898371
28659;7.694416;-0.474732;6.246196;-0.022750;-0.003613;-0.020844;-0.809814;0.113037;0.023682;0.072346;-0.433099;-0.010909;-0.898372
28660;7.705452;-0.412474;6.168614;-0.025356;-0.002473;-0.023955;-0.814697;0.117676;0.020752;0.072067;-0.433145;-0.010787;-0.898374
28661;7.712307;-0.345688;6.202739;-0.012682;-0.000316;-0.019411;-0.811523;0.114502;0.020264;0.071960;-0.433125;-0.010730;-0.898392
28662;7.724673;-0.361332;6.132843;-0.014053;0.006430;-0.017430;-0.808594;0.119629;0.020752;0.071804;-0.433055;-0.010660;-0.898440
28663;7.709308;-0.366319;6.166797;-0.002005;0.017843;-0.007722;-0.814209;0.113037;0.024658;0.071860;-0.432906;-0.010619;-0.898507
28664;7.671488;-0.391573;6.169036;-0.006297;0.023250;-0.003754;-0.811768;0.114258;0.021484;0.071823;-0.432768;-0.010567;-0.898578
28665;7.660945;-0.380522;6.177242;-0.005167;0.026141;-0.003984;-0.813721;0.108154;0.022217;0.071804;-0.432572;-0.010512;-0.898674
28666;7.609231;-0.361977;6.102968;-0.017860;0.027304;-0.001723;-0.820068;0.122070;0.018066;0.071641;-0.432386;-0.010379;-0.898778
28667;7.607673;-0.339149;6.097624;-0.008516;0.023847;-0.002842;-0.821777;0.113281;0.018066;0.071783;-0.432163;-0.010281;-0.898875
28668;7.622360;-0.364943;6.182976;-0.004598;0.022907;0.000235;-0.812988;0.120117;0.028320;0.071790;-0.431947;-0.010240;-0.898979
28669;7.635958;-0.387940;6.175829;-0.009525;0.025215;-0.000474;-0.815918;0.114502;0.022461;0.071915;-0.431877;-0.010138;-0.899004
28670;7.644824;-0.405524;6.233783;-0.003035;0.022537;0.001467;-0.810303;0.108398;0.020752;0.071955;-0.431740;-0.010099;-0.899067
28671;7.668751;-0.392511;6.204279;-0.010419;0.020839;0.008450;-0.814453;0.113525;0.020996;0.071878;-0.431606;-0.009989;-0.899139
28672;7.634350;-0.424127;6.219220;-0.008194;0.006958;0.005135;-0.817139;0.108887;0.017334;0.071899;-0.431576;-0.009907;-0.899152
28673;7.635887;-0.405924;6.180337;-0.024362;0.028779;0.015437;-0.814697;0.110596;0.009766;0.071838;-0.431336;-0.009672;-0.899274
28674;7.634481;-0.436894;6.159373;-0.017975;0.022450;0.019489;-0.818848;0.119141;0.015625;0.071852;-0.431036;-0.009458;-0.899420
28675;7.651304;-0.418240;6.227278;-0.009471;0.017045;0.016693;-0.817139;0.115479;0.014160;0.072066;-0.430862;-0.009303;-0.899488
28676;7.631407;-0.419945;6.155564;-0.013080;0.019554;0.015947;-0.820312;0.115234;0.013916;0.072171;-0.430654;-0.009133;-0.899580
28677;7.623850;-0.414239;6.130334;0.001145;0.016474;0.018123;-0.811035;0.111816;0.022705;0.072334;-0.430460;-0.009071;-0.899661
28678;7.650316;-0.430227;6.122140;0.002298;0.010891;0.019125;-0.810059;0.116943;0.025391;0.072432;-0.430459;-0.009022;-0.899654
28679;7.613973;-0.382966;6.083559;-0.015381;0.008029;0.020184;-0.819580;0.117188;0.023926;0.072591;-0.430536;-0.008821;-0.899606
28680;7.592564;-0.383668;6.043228;-0.014903;0.010807;0.033783;-0.819336;0.117188;0.010254;0.072848;-0.430558;-0.008589;-0.899577
28681;7.613908;-0.447102;6.084838;0.010376;0.022339;0.033227;-0.816162;0.115479;0.016357;0.073161;-0.430268;-0.008534;-0.899691
28682;7.615364;-0.430592;6.092982;0.009165;0.021575;0.031763;-0.814697;0.117432;0.013916;0.073419;-0.430093;-0.008484;-0.899754
28683;7.635343;-0.569402;6.221147;0.022698;0.026567;0.030611;-0.814941;0.125732;0.013916;0.073749;-0.429841;-0.008528;-0.899847
28684;7.663488;-0.515919;6.236371;0.013667;0.037099;0.041926;-0.813232;0.117188;0.023682;0.074312;-0.429523;-0.008425;-0.899954
28685;7.670426;-0.485319;6.264864;0.007316;0.027121;0.044570;-0.818359;0.118408;0.019775;0.074680;-0.429450;-0.008312;-0.899959
28686;7.569877;-0.528671;6.197899;0.003183;0.025645;0.049329;-0.818359;0.121582;0.009033;0.075074;-0.429326;-0.008154;-0.899987
28687;7.534427;-0.539391;6.159681;0.003135;0.029620;0.060389;-0.806885;0.116211;0.014893;0.075584;-0.429006;-0.007933;-0.900099
28688;7.583581;-0.541548;6.106624;0.010297;0.010657;0.055240;-0.804688;0.125732;0.009277;0.075954;-0.428937;-0.007805;-0.900102
28689;7.592367;-0.534036;6.093261;0.009952;-0.009708;0.042617;-0.812012;0.133545;0.020508;0.076435;-0.428933;-0.007694;-0.900064
28690;7.598917;-0.546668;6.118996;0.002846;-0.019213;0.032965;-0.814941;0.128906;0.014160;0.077003;-0.429180;-0.007565;-0.899899
28691;7.586498;-0.507566;6.210573;-0.012040;-0.021331;0.025018;-0.806885;0.122314;0.016113;0.077309;-0.429342;-0.007370;-0.899797
28692;7.608776;-0.467058;6.311424;-0.013847;-0.016751;0.017651;-0.815674;0.124512;0.017578;0.077383;-0.429504;-0.007196;-0.899715
28693;7.695878;-0.463890;6.217161;-0.015678;-0.003967;0.020730;-0.822266;0.125000;0.011719;0.077530;-0.429580;-0.007004;-0.899667
28694;7.732350;-0.519698;6.178521;-0.007194;0.010868;0.022306;-0.812012;0.129150;0.014160;0.077703;-0.429438;-0.006864;-0.899721
28695;7.663723;-0.529902;6.176143;-0.000990;0.024172;0.023717;-0.815918;0.122803;0.014404;0.078008;-0.429245;-0.006727;-0.899788
28696;7.602017;-0.550179;6.170024;0.015626;0.030452;0.023363;-0.812744;0.122070;0.009766;0.078208;-0.429002;-0.006746;-0.899886
28697;7.568294;-0.586191;6.246967;0.020285;0.028071;0.018571;-0.811768;0.126709;0.010986;0.078347;-0.428709;-0.006807;-0.900013
28698;7.547096;-0.557431;6.153483;0.002383;0.014650;0.017001;-0.815430;0.124023;0.010742;0.078528;-0.428556;-0.006736;-0.900071
28699;7.539958;-0.523633;6.150661;0.004126;-0.005144;0.009222;-0.800537;0.125244;0.019287;0.078580;-0.428547;-0.006734;-0.900071
28700;7.559504;-0.553325;6.199458;-0.008365;-0.013559;0.009676;-0.820557;0.124023;0.016602;0.078656;-0.428761;-0.006625;-0.899963
28701;7.550776;-0.540962;6.234759;-0.010551;-0.021176;0.000135;-0.819580;0.120605;0.017090;0.078590;-0.428967;-0.006572;-0.899871
28702;7.599106;-0.452837;6.234310;-0.004351;-0.029441;-0.011300;-0.812988;0.128906;0.019775;0.078380;-0.429233;-0.006623;-0.899762
28703;7.614872;-0.471901;6.253846;-0.015168;-0.015511;-0.015862;-0.808105;0.127930;0.014160;0.078313;-0.429441;-0.006560;-0.899669
28704;7.632015;-0.490448;6.149191;-0.011692;-0.013817;-0.018482;-0.819092;0.135498;0.015137;0.078211;-0.429539;-0.006523;-0.899631
28705;7.643587;-0.553389;6.094388;-0.009709;-0.009606;-0.021267;-0.807617;0.117432;0.014404;0.078264;-0.429610;-0.006497;-0.899593
28706;7.595504;-0.556572;6.069806;-0.007928;-0.011792;-0.027266;-0.819336;0.120850;0.017090;0.077853;-0.429692;-0.006552;-0.899589
28707;7.642745;-0.517319;6.101408;-0.002191;-0.017041;-0.028493;-0.803955;0.119629;0.016846;0.077551;-0.429843;-0.006667;-0.899542
28708;7.638324;-0.532500;6.172867;0.001773;-0.015860;-0.024335;-0.807373;0.120850;0.014160;0.077292;-0.429986;-0.006775;-0.899495
28709;7.648903;-0.567267;6.142150;-0.004031;-0.008494;-0.024793;-0.816406;0.120850;0.011475;0.077041;-0.430028;-0.006835;-0.899496
28710;7.616620;-0.540611;6.076846;-0.009560;-0.012901;-0.025324;-0.818359;0.129150;0.020264;0.076756;-0.430057;-0.006868;-0.899507
28711;7.635658;-0.486452;6.071972;-0.005484;-0.016553;-0.022046;-0.816162;0.126221;0.018799;0.076721;-0.430249;-0.006895;-0.899417
28712;7.668295;-0.504172;6.120097;-0.001873;-0.014216;-0.017662;-0.813965;0.130615;0.016113;0.076671;-0.430396;-0.006940;-0.899351
28713;7.696637;-0.490902;6.179085;-0.000255;-0.008840;-0.020218;-0.816895;0.124512;0.017334;0.076714;-0.430456;-0.006983;-0.899319
28714;7.717117;-0.491553;6.173734;-0.007674;0.001620;-0.019341;-0.808594;0.121582;0.020264;0.076592;-0.430459;-0.006987;-0.899327
28715;7.671782;-0.525902;6.140301;-0.004208;-0.000916;-0.021352;-0.813721;0.121094;0.017822;0.076422;-0.430530;-0.007026;-0.899308
28716;7.646039;-0.541127;6.218276;-0.027815;-0.003639;-0.013786;-0.818115;0.123779;0.016357;0.076205;-0.430595;-0.006868;-0.899296
28717;7.632418;-0.467790;6.071699;-0.035968;-0.007807;-0.010005;-0.814941;0.122803;0.022949;0.076043;-0.430668;-0.006633;-0.899277
28718;7.639577;-0.479459;6.143667;-0.025206;-0.016570;-0.016271;-0.812256;0.118164;0.019531;0.075871;-0.430902;-0.006510;-0.899180
28719;7.637292;-0.499411;6.136182;-0.023956;-0.014265;-0.017987;-0.819580;0.120605;0.020508;0.075586;-0.431060;-0.006411;-0.899129
28720;7.669763;-0.519036;6.184432;-0.018207;-0.011023;-0.020443;-0.816650;0.125732;0.020020;0.075354;-0.431196;-0.006362;-0.899083
28721;7.613697;-0.563823;6.149069;-0.032552;-0.011523;-0.020520;-0.814209;0.118164;0.019775;0.075190;-0.431335;-0.006180;-0.899032
28722;7.635259;-0.516154;6.157972;-0.017074;-0.016596;-0.019454;-0.813477;0.119629;0.019287;0.074935;-0.431496;-0.006140;-0.898976
28723;7.696211;-0.524583;6.141888;-0.031093;-0.002232;-0.014752;-0.813477;0.118164;0.024658;0.074703;-0.431547;-0.005960;-0.898972
28724;7.678360;-0.525781;6.114510;-0.028196;0.010886;-0.011113;-0.805664;0.127930;0.027832;0.074490;-0.431577;-0.005787;-0.898976
28725;7.604804;-0.553053;6.184609;-0.021955;0.008743;-0.010435;-0.815430;0.121826;0.016113;0.074535;-0.431671;-0.005612;-0.898929
28726;7.587108;-0.552687;6.157168;-0.011915;-0.002525;-0.019907;-0.820068;0.130371;0.021729;0.074375;-0.431659;-0.005584;-0.898948
28727;7.620694;-0.521435;6.143703;-0.004463;-0.003901;-0.017766;-0.807861;0.123535;0.026123;0.074440;-0.431734;-0.005575;-0.898907
28728;7.680461;-0.475817;6.098325;-0.008297;-0.000209;-0.015517;-0.818115;0.128418;0.023682;0.074400;-0.431853;-0.005547;-0.898853
28729;7.669979;-0.509397;6.073692;-0.003731;-0.001382;-0.014577;-0.824463;0.123291;0.022949;0.074464;-0.431934;-0.005540;-0.898809
28730;7.650015;-0.532997;6.179044;-0.003840;-0.005035;-0.012481;-0.815918;0.110352;0.027100;0.074440;-0.432027;-0.005563;-0.898766
28731;7.642471;-0.518791;6.136990;-0.004082;-0.008697;-0.013144;-0.817871;0.116211;0.022217;0.074195;-0.432211;-0.005645;-0.898697
28732;7.650145;-0.449670;6.124059;0.004994;-0.017405;-0.011742;-0.817871;0.111816;0.018555;0.074084;-0.432377;-0.005758;-0.898626
28733;7.695683;-0.484270;6.101868;-0.002200;-0.011772;-0.008967;-0.812500;0.120850;0.024170;0.073883;-0.432449;-0.005821;-0.898607
28734;7.687071;-0.494573;6.067951;-0.005680;-0.005007;-0.007549;-0.813477;0.123047;0.026611;0.073857;-0.432553;-0.005795;-0.898560
28735;7.627224;-0.561966;6.120684;-0.003062;-0.005223;-0.011865;-0.813477;0.116455;0.014160;0.073851;-0.432690;-0.005796;-0.898494
28736;7.624251;-0.530071;6.129944;-0.005042;-0.014270;-0.012743;-0.820801;0.121338;0.022217;0.073683;-0.432715;-0.005813;-0.898496
28737;7.653846;-0.492487;6.133652;-0.006358;-0.018691;-0.012111;-0.810303;0.127197;0.016846;0.073620;-0.432884;-0.005813;-0.898420
28738;7.670622;-0.489521;6.191928;-0.007310;-0.010971;-0.009259;-0.815674;0.119141;0.023438;0.073666;-0.432920;-0.005738;-0.898399
28739;7.672375;-0.514152;6.120254;-0.020421;-0.004947;-0.011636;-0.819824;0.124268;0.021240;0.073527;-0.433007;-0.005628;-0.898369
28740;7.639463;-0.489496;6.055273;-0.004152;-0.015033;-0.013627;-0.820801;0.116943;0.020020;0.073508;-0.433126;-0.005629;-0.898313
28741;7.704816;-0.554595;6.128851;-0.003480;-0.014644;-0.011516;-0.811523;0.124023;0.029297;0.073386;-0.433222;-0.005667;-0.898277
28742;7.666055;-0.497038;6.106187;-0.018584;-0.018612;-0.007341;-0.814941;0.122070;0.023438;0.073387;-0.433486;-0.005535;-0.898150
28743;7.640453;-0.485988;6.160168;-0.013414;-0.017279;-0.005975;-0.815186;0.114502;0.028564;0.073364;-0.433648;-0.005445;-0.898074
28744;7.644692;-0.539505;6.109422;-0.016242;-0.014953;-0.006094;-0.806396;0.115723;0.024170;0.073229;-0.433861;-0.005381;-0.897983
28745;7.623094;-0.505635;6.121961;-0.004124;-0.030993;-0.018673;-0.821777;0.121582;0.026367;0.073046;-0.434123;-0.005432;-0.897871
28746;7.614078;-0.512277;6.118274;-0.000863;-0.023297;-0.014649;-0.810059;0.119141;0.027100;0.073003;-0.434343;-0.005485;-0.897767
28747;7.698411;-0.421383;6.094668;0.012038;-0.026238;-0.024157;-0.815186;0.113770;0.021240;0.072904;-0.434586;-0.005663;-0.897657
28748;7.720806;-0.495778;6.125164;0.013954;-0.023542;-0.023759;-0.822510;0.119385;0.017822;0.072716;-0.434721;-0.005881;-0.897605
28749;7.719516;-0.511056;6.116841;0.009735;-0.023518;-0.024922;-0.816895;0.119873;0.029053;0.072582;-0.434807;-0.006049;-0.897573
28750;7.733952;-0.498608;6.114173;0.005835;-0.021957;-0.023741;-0.815918;0.128662;0.028564;0.072488;-0.435033;-0.006181;-0.897470
28751;7.724574;-0.478391;6.056904;-0.006108;-0.016722;-0.021454;-0.814453;0.114258;0.020752;0.072497;-0.435216;-0.006161;-0.897381
28752;7.727505;-0.452188;6.046295;-0.000497;-0.018653;-0.018652;-0.813721;0.117676;0.024658;0.072311;-0.435304;-0.006237;-0.897353
28753;7.701750;-0.462391;6.108022;-0.000251;-0.029217;-0.013021;-0.813965;0.122070;0.034180;0.072236;-0.435521;-0.006288;-0.897253
28754;7.674832;-0.469296;6.077010;-0.002668;-0.021710;-0.012884;-0.813965;0.116943;0.030518;0.072250;-0.435801;-0.006305;-0.897116
28755;7.698752;-0.447828;6.107142;-0.000217;-0.021904;-0.019969;-0.811523;0.119385;0.021240;0.072133;-0.436027;-0.006387;-0.897015
28756;7.746031;-0.456706;6.075465;0.005341;-0.020181;-0.022024;-0.818848;0.115234;0.027344;0.072023;-0.436113;-0.006485;-0.896981
28757;7.744994;-0.474980;6.113938;0.002509;-0.017863;-0.022135;-0.823730;0.112061;0.028564;0.071867;-0.436257;-0.006601;-0.896923
28758;7.735542;-0.480125;5.986600;-0.011923;-0.013030;-0.017002;-0.814209;0.118896;0.023682;0.071660;-0.436383;-0.006613;-0.896878
28759;7.725201;-0.462562;6.054481;-0.001105;-0.025334;-0.018493;-0.817871;0.117432;0.033691;0.071565;-0.436535;-0.006659;-0.896812
28760;7.725232;-0.458756;6.084375;-0.013700;-0.015709;-0.014637;-0.814453;0.109375;0.023682;0.071464;-0.436744;-0.006617;-0.896719
28761;7.728266;-0.484151;6.057901;-0.004270;-0.017064;-0.014712;-0.817383;0.118896;0.020752;0.071257;-0.436828;-0.006667;-0.896694
28762;7.718286;-0.490981;6.055463;-0.002743;-0.018019;-0.017742;-0.816162;0.117676;0.026367;0.071159;-0.436879;-0.006694;-0.896676
28763;7.703060;-0.465165;6.017665;-0.005868;-0.012446;-0.016534;-0.809082;0.112549;0.030518;0.071061;-0.436959;-0.006699;-0.896645
28764;7.692741;-0.472342;6.015633;-0.005168;-0.016285;-0.013829;-0.822021;0.109375;0.029053;0.070931;-0.437120;-0.006721;-0.896577
28765;7.721087;-0.433726;6.097647;-0.003111;-0.022616;-0.013741;-0.815674;0.110596;0.028564;0.070753;-0.437299;-0.006788;-0.896503
28766;7.766891;-0.417661;6.090212;-0.004813;-0.017428;-0.014065;-0.819092;0.114014;0.038818;0.070591;-0.437434;-0.006826;-0.896450
28767;7.774723;-0.449547;6.045155;-0.006446;-0.010135;-0.013305;-0.811279;0.117676;0.030029;0.070495;-0.437635;-0.006839;-0.896359
28768;7.755750;-0.445486;6.049168;-0.000188;-0.006489;-0.016432;-0.820312;0.110107;0.032715;0.070441;-0.437698;-0.006876;-0.896332
28769;7.699897;-0.441218;6.077084;-0.013411;-0.009933;-0.012883;-0.817627;0.116455;0.030518;0.070263;-0.437822;-0.006850;-0.896286
28770;7.694243;-0.429937;6.002002;-0.011784;-0.011455;-0.017413;-0.823486;0.112793;0.034180;0.070140;-0.437928;-0.006818;-0.896244
28771;7.737321;-0.411876;6.027864;-0.009929;-0.016638;-0.014334;-0.810547;0.111816;0.031982;0.070003;-0.438110;-0.006817;-0.896166
28772;7.785090;-0.398517;5.987824;-0.003751;-0.022399;-0.011605;-0.819336;0.108398;0.031006;0.069907;-0.438307;-0.006845;-0.896076
28773;7.769341;-0.423211;6.012411;-0.003174;-0.015685;-0.011765;-0.815674;0.111572;0.030518;0.069762;-0.438434;-0.006897;-0.896025
28774;7.752210;-0.471913;6.046061;-0.006458;-0.010116;-0.013307;-0.819824;0.112793;0.020996;0.069638;-0.438516;-0.006907;-0.895995
28775;7.718612;-0.446669;5.981253;-0.009497;-0.014126;-0.016660;-0.814941;0.114990;0.033691;0.069477;-0.438514;-0.006903;-0.896008
28776;7.776440;-0.424090;6.021027;-0.004520;-0.011648;-0.012321;-0.815918;0.113281;0.032715;0.069418;-0.438641;-0.006908;-0.895951
28777;7.782526;-0.430081;6.000801;-0.008447;-0.007440;-0.008539;-0.814209;0.113281;0.037109;0.069350;-0.438724;-0.006875;-0.895915
28778;7.787638;-0.461837;6.114105;-0.000602;-0.009941;-0.006682;-0.820312;0.114746;0.035400;0.069333;-0.438871;-0.006895;-0.895844
28779;7.715570;-0.435054;6.027773;-0.015436;-0.003027;-0.008700;-0.819580;0.114014;0.040039;0.069254;-0.438950;-0.006805;-0.895813
28780;7.724360;-0.445695;6.021590;-0.005935;-0.009716;-0.013960;-0.817871;0.115234;0.029297;0.069169;-0.439124;-0.006814;-0.895734
28781;7.724450;-0.443337;5.973960;-0.013643;-0.010313;-0.006710;-0.815430;0.116943;0.034912;0.069111;-0.439183;-0.006726;-0.895710
28782;7.751099;-0.452443;5.947646;-0.001856;-0.022777;-0.004877;-0.821533;0.120117;0.034424;0.069140;-0.439392;-0.006720;-0.895606
28783;7.742481;-0.438306;6.061287;-0.006051;-0.025436;-0.008605;-0.820557;0.109863;0.032471;0.069148;-0.439610;-0.006686;-0.895498
28784;7.763055;-0.461927;6.015003;-0.010624;-0.021184;-0.015858;-0.819336;0.106445;0.039551;0.068977;-0.439773;-0.006690;-0.895431
28785;7.765271;-0.459947;6.012293;-0.001076;-0.019997;-0.023804;-0.814697;0.113770;0.027832;0.068764;-0.439996;-0.006815;-0.895337
28786;7.752365;-0.485763;5.925793;-0.002023;-0.012346;-0.020922;-0.816895;0.111328;0.039307;0.068630;-0.440031;-0.006865;-0.895330
28787;7.783390;-0.423961;5.967304;0.009214;-0.020965;-0.019041;-0.818115;0.107666;0.028076;0.068545;-0.440249;-0.007018;-0.895228
28788;7.830884;-0.384119;5.997738;0.012775;-0.019662;-0.009995;-0.811035;0.111816;0.034912;0.068486;-0.440328;-0.007174;-0.895192
28789;7.805514;-0.395389;5.982240;0.000418;-0.006481;-0.005405;-0.817871;0.111084;0.036621;0.068480;-0.440392;-0.007192;-0.895161
28790;7.764961;-0.437429;6.008432;0.003952;-0.005310;-0.009548;-0.819092;0.117188;0.036133;0.068441;-0.440460;-0.007260;-0.895130
28791;7.724138;-0.453149;5.979946;0.000281;-0.009132;-0.010749;-0.812744;0.118652;0.039551;0.068439;-0.440552;-0.007280;-0.895085
28792;7.739730;-0.421511;5.937784;0.000737;-0.012391;-0.009312;-0.819824;0.105469;0.036621;0.068478;-0.440706;-0.007292;-0.895006
28793;7.815351;-0.372475;5.949959;0.006238;-0.018510;-0.008710;-0.819580;0.113525;0.039307;0.068399;-0.440864;-0.007408;-0.894934
28794;7.833095;-0.368614;6.007836;0.005056;-0.014502;-0.006499;-0.817627;0.114258;0.030029;0.068413;-0.441019;-0.007469;-0.894855
28795;7.837711;-0.422364;6.004206;0.000388;-0.003811;-0.002821;-0.811279;0.107666;0.031738;0.068431;-0.440997;-0.007464;-0.894865
28796;7.805712;-0.451613;6.017195;0.006129;-0.003206;-0.007896;-0.820068;0.106689;0.026611;0.068382;-0.440988;-0.007547;-0.894872
28797;7.788484;-0.427274;5.981459;-0.011815;0.001910;-0.001717;-0.817139;0.116943;0.030273;0.068285;-0.440894;-0.007475;-0.894926
28798;7.796529;-0.389359;5.913541;-0.009536;0.001895;0.001612;-0.812500;0.108643;0.030273;0.068335;-0.440842;-0.007369;-0.894949
28799;7.799962;-0.396170;6.052365;-0.003170;-0.000772;0.000734;-0.825928;0.110840;0.043213;0.068324;-0.440808;-0.007345;-0.894967
28800;7.801704;-0.423234;5.949436;-0.005504;0.006120;-0.000600;-0.811523;0.120850;0.035645;0.068309;-0.440852;-0.007309;-0.894947
28801;7.822014;-0.452220;5.920929;-0.000081;0.011088;0.001407;-0.815918;0.103760;0.045410;0.068448;-0.440786;-0.007258;-0.894969
28802;7.811527;-0.415890;5.952050;-0.009619;0.011439;0.006190;-0.817139;0.107666;0.036133;0.068421;-0.440820;-0.007192;-0.894955
28803;7.822636;-0.385662;5.945549;-0.019088;0.015439;0.008884;-0.814453;0.113281;0.041504;0.068403;-0.440735;-0.007021;-0.895000
28804;7.841578;-0.393107;5.989134;-0.016699;0.025388;0.010624;-0.812988;0.122070;0.036133;0.068472;-0.440632;-0.006838;-0.895047
28805;7.785120;-0.422430;5.965156;-0.019862;0.033606;0.014437;-0.812988;0.116211;0.031738;0.068636;-0.440419;-0.006577;-0.895141
28806;7.772845;-0.439240;5.982981;-0.017325;0.034568;0.015854;-0.814697;0.108643;0.036133;0.068755;-0.440156;-0.006350;-0.895263
28807;7.748089;-0.413978;6.016939;-0.015545;0.034607;0.010904;-0.812500;0.118652;0.031250;0.068772;-0.439939;-0.006188;-0.895369
28808;7.769751;-0.425878;5.996843;-0.015425;0.029834;0.009990;-0.816162;0.116699;0.032471;0.068877;-0.439714;-0.005994;-0.895473
28809;7.774829;-0.439508;5.995236;-0.003550;0.028460;0.015984;-0.818848;0.116455;0.037598;0.069044;-0.439508;-0.005878;-0.895562
28810;7.796780;-0.476838;6.029652;-0.001561;0.034801;0.014297;-0.818115;0.115234;0.037354;0.069207;-0.439307;-0.005788;-0.895649
28811;7.816852;-0.461878;6.034434;-0.010018;0.034832;0.012001;-0.812500;0.110840;0.028320;0.069309;-0.439111;-0.005649;-0.895738
28812;7.771728;-0.481945;6.011079;-0.016203;0.034845;0.013037;-0.818359;0.112549;0.036621;0.069340;-0.438835;-0.005463;-0.895871
28813;7.718816;-0.443131;6.055502;-0.009183;0.035210;0.016871;-0.816650;0.115723;0.026367;0.069451;-0.438637;-0.005322;-0.895961
28814;7.700406;-0.423979;5.991474;-0.006146;0.031779;0.013972;-0.822021;0.111572;0.032959;0.069561;-0.438367;-0.005195;-0.896085
28815;7.722703;-0.460669;6.025350;0.004098;0.022782;0.008243;-0.816895;0.118164;0.034180;0.069628;-0.438225;-0.005195;-0.896150
28816;7.710502;-0.498249;6.050202;0.001271;0.026647;0.004969;-0.820068;0.114014;0.023682;0.069733;-0.438071;-0.005161;-0.896217
28817;7.742728;-0.497102;6.062115;-0.003720;0.022637;0.003787;-0.813232;0.114014;0.028809;0.069745;-0.437851;-0.005102;-0.896324
28818;7.738494;-0.469751;6.042841;-0.004760;0.017641;0.005669;-0.815430;0.112793;0.034180;0.069792;-0.437724;-0.005036;-0.896382
28819;7.777053;-0.425564;5.972736;-0.004192;0.024364;0.005522;-0.814453;0.127686;0.026367;0.069833;-0.437599;-0.004981;-0.896441
28820;7.837109;-0.490457;6.083366;0.000624;0.026848;0.007117;-0.808105;0.109375;0.032715;0.070027;-0.437383;-0.004899;-0.896531
28821;7.765082;-0.520654;5.998990;-0.023220;0.035132;0.013415;-0.811768;0.110840;0.029541;0.070036;-0.437183;-0.004678;-0.896629
28822;7.637504;-0.528447;6.105855;-0.002568;0.015526;0.007919;-0.817383;0.113525;0.025879;0.070076;-0.437089;-0.004634;-0.896672
28823;7.681012;-0.490651;6.094220;-0.007168;0.002898;0.000234;-0.814941;0.119385;0.030762;0.070048;-0.437058;-0.004580;-0.896690
28824;7.727601;-0.502166;5.986301;-0.000897;-0.002463;-0.005960;-0.809082;0.112305;0.032471;0.070069;-0.437111;-0.004588;-0.896662
28825;7.739690;-0.491554;5.986385;0.016881;-0.000738;-0.012809;-0.813965;0.117188;0.039795;0.070049;-0.437156;-0.004773;-0.896641
28826;7.770206;-0.455427;6.006116;0.023488;0.000213;-0.012981;-0.819824;0.107666;0.024170;0.070105;-0.437257;-0.005002;-0.896586
28827;7.786799;-0.401594;6.050857;0.027122;0.011509;-0.005503;-0.816406;0.116699;0.026611;0.070097;-0.437123;-0.005234;-0.896651
28828;7.791562;-0.458042;6.064337;0.019818;0.022440;0.002483;-0.807617;0.114502;0.030762;0.070223;-0.436939;-0.005354;-0.896730
28829;7.747348;-0.522294;5.977490;0.015882;0.031450;0.009925;-0.811523;0.111572;0.030518;0.070398;-0.436734;-0.005423;-0.896816
28830;7.719732;-0.489348;5.997505;0.006965;0.033206;0.009336;-0.822998;0.114990;0.029785;0.070494;-0.436521;-0.005434;-0.896912
28831;7.682601;-0.417593;5.999947;0.003552;0.018219;0.009468;-0.816650;0.114502;0.029785;0.070583;-0.436416;-0.005418;-0.896956
28832;7.688633;-0.378728;6.012738;0.008850;0.009959;0.006255;-0.813965;0.115234;0.035889;0.070677;-0.436374;-0.005460;-0.896969
28833;7.730046;-0.387158;6.018252;0.021668;0.017254;0.005569;-0.822510;0.117432;0.028564;0.070833;-0.436326;-0.005601;-0.896979
28834;7.742489;-0.480807;6.081191;0.037989;0.017826;0.003438;-0.816650;0.115234;0.030273;0.071022;-0.436197;-0.005859;-0.897025
28835;7.771882;-0.471837;6.079738;0.025904;0.029395;0.003455;-0.811523;0.115234;0.026855;0.071163;-0.436008;-0.006029;-0.897104
28836;7.718090;-0.475548;6.139161;0.026209;0.020352;0.005902;-0.817139;0.116699;0.022217;0.071331;-0.435860;-0.006196;-0.897162
28837;7.699430;-0.501524;6.090409;-0.000955;0.027875;0.010091;-0.823486;0.120117;0.035645;0.071425;-0.435633;-0.006133;-0.897265
28838;7.699981;-0.502234;5.889609;-0.009497;0.022683;0.013022;-0.817627;0.116455;0.031006;0.071539;-0.435571;-0.005997;-0.897287
28839;7.672856;-0.472355;6.032071;0.005942;0.004393;0.008822;-0.817627;0.121338;0.029541;0.071653;-0.435598;-0.006013;-0.897265
28840;7.706383;-0.447069;6.111819;-0.003843;-0.002132;0.006030;-0.814697;0.113037;0.029785;0.071745;-0.435666;-0.005953;-0.897225
28841;7.729940;-0.428808;6.065544;-0.000108;-0.005214;0.005265;-0.818848;0.115234;0.027344;0.071788;-0.435756;-0.005954;-0.897178
28842;7.731445;-0.455917;6.041118;-0.003167;0.004034;0.004375;-0.818115;0.116455;0.023438;0.071817;-0.435755;-0.005922;-0.897176
28843;7.717094;-0.487153;6.004205;0.003755;0.017111;0.006457;-0.824951;0.110107;0.028076;0.071891;-0.435619;-0.005919;-0.897236
28844;7.718932;-0.493888;6.066069;0.006252;0.011715;0.007401;-0.812500;0.112305;0.027588;0.071930;-0.435562;-0.005961;-0.897260
28845;7.693157;-0.487369;6.137443;-0.002941;0.007692;0.005043;-0.802734;0.115723;0.033447;0.071958;-0.435540;-0.005937;-0.897269
28846;7.671922;-0.483902;6.097037;-0.008621;0.007520;0.001146;-0.817871;0.123779;0.028320;0.071987;-0.435576;-0.005876;-0.897249
28847;7.657164;-0.462636;6.029142;-0.002192;0.002128;-0.002261;-0.804932;0.109375;0.026611;0.072029;-0.435602;-0.005848;-0.897234
28848;7.686148;-0.451064;6.010836;0.011907;-0.001537;-0.007121;-0.819092;0.115723;0.028320;0.072010;-0.435632;-0.005994;-0.897220
28849;7.728593;-0.484378;6.069197;0.006962;0.000784;-0.007822;-0.820312;0.114014;0.023926;0.071985;-0.435660;-0.006082;-0.897208
28850;7.698168;-0.466930;6.111980;0.003110;-0.000362;-0.009225;-0.814697;0.120361;0.027344;0.071918;-0.435660;-0.006151;-0.897213
28851;7.697946;-0.464028;6.065471;-0.009985;-0.002846;-0.010406;-0.812988;0.116211;0.015381;0.071855;-0.435718;-0.006108;-0.897190
28852;7.650060;-0.445720;6.033507;-0.008273;-0.008047;-0.010077;-0.817139;0.123047;0.026367;0.071766;-0.435712;-0.006089;-0.897200
28853;7.693431;-0.451871;5.989782;0.001642;-0.011131;-0.011850;-0.810547;0.120361;0.032959;0.071750;-0.435815;-0.006135;-0.897151
28854;7.703930;-0.464712;6.075483;0.006918;-0.015165;-0.015641;-0.815186;0.115234;0.022705;0.071727;-0.435999;-0.006249;-0.897062
28855;7.715114;-0.451467;6.106323;-0.001796;-0.016115;-0.016065;-0.813721;0.121582;0.029053;0.071611;-0.436107;-0.006309;-0.897019
28856;7.707938;-0.462812;6.117618;-0.007080;-0.016877;-0.015937;-0.811523;0.118408;0.027832;0.071536;-0.436275;-0.006315;-0.896943
28857;7.701884;-0.424748;6.066197;-0.013350;-0.014749;-0.016604;-0.812500;0.119385;0.025879;0.071414;-0.436418;-0.006283;-0.896883
28858;7.693497;-0.432348;5.985101;-0.004954;-0.015319;-0.018531;-0.815674;0.109375;0.030029;0.071312;-0.436543;-0.006317;-0.896831
28859;7.752185;-0.486965;6.109759;0.005164;-0.016290;-0.016467;-0.813721;0.109619;0.028809;0.071183;-0.436698;-0.006448;-0.896764
28860;7.723850;-0.491710;6.033635;-0.012825;-0.014352;-0.017250;-0.820068;0.117432;0.031250;0.070990;-0.436839;-0.006444;-0.896711
28861;7.704067;-0.485465;6.068137;-0.007244;-0.032216;-0.022267;-0.822510;0.114014;0.032715;0.070828;-0.437126;-0.006489;-0.896584
28862;7.691609;-0.464244;6.120910;-0.021070;-0.027599;-0.019299;-0.816162;0.118652;0.027832;0.070610;-0.437394;-0.006425;-0.896471
28863;7.679262;-0.413519;5.948421;-0.016232;-0.021989;-0.024048;-0.823975;0.112305;0.033936;0.070419;-0.437575;-0.006396;-0.896398
28864;7.742208;-0.445547;6.031046;0.008896;-0.025788;-0.030939;-0.816406;0.119385;0.035156;0.070213;-0.437813;-0.006602;-0.896296
28865;7.786513;-0.423355;6.055591;0.012777;-0.028860;-0.028955;-0.823975;0.110840;0.032959;0.070104;-0.438081;-0.006809;-0.896172
28866;7.771628;-0.444738;6.079158;0.007241;-0.024253;-0.026414;-0.814697;0.108398;0.028564;0.069923;-0.438293;-0.006988;-0.896081
28867;7.723142;-0.395341;6.023373;-0.001736;-0.021399;-0.021243;-0.817871;0.107178;0.027100;0.069753;-0.438454;-0.007086;-0.896015
28868;7.710334;-0.397299;6.007142;-0.001562;-0.015072;-0.017989;-0.812744;0.114014;0.031006;0.069594;-0.438553;-0.007172;-0.895978
28869;7.725316;-0.412674;5.980996;-0.002249;-0.015440;-0.020102;-0.812256;0.111328;0.031738;0.069474;-0.438687;-0.007240;-0.895921
28870;7.734119;-0.394699;5.997483;-0.001333;-0.025204;-0.024065;-0.812988;0.117432;0.038574;0.069313;-0.438896;-0.007343;-0.895830
28871;7.771515;-0.389638;6.003029;-0.000018;-0.025001;-0.024102;-0.812256;0.117920;0.033447;0.069200;-0.439154;-0.007438;-0.895712
28872;7.799968;-0.398042;6.022165;-0.003081;-0.023118;-0.018038;-0.813721;0.113281;0.028320;0.069125;-0.439357;-0.007485;-0.895618
28873;7.822322;-0.400988;6.061365;-0.008836;-0.006842;-0.012587;-0.823486;0.112305;0.026367;0.069033;-0.439399;-0.007471;-0.895605
28874;7.790058;-0.378912;5.964977;-0.009292;-0.000352;-0.007182;-0.810303;0.114502;0.039062;0.068949;-0.439374;-0.007427;-0.895623
28875;7.764590;-0.392583;5.996908;0.014134;-0.004697;-0.010673;-0.816895;0.103027;0.039062;0.068985;-0.439470;-0.007578;-0.895572
28876;7.792913;-0.404271;5.986381;-0.006488;0.001576;-0.007667;-0.817871;0.104980;0.032715;0.068875;-0.439527;-0.007588;-0.895553
28877;7.756285;-0.403016;6.009920;0.002779;-0.006059;-0.010999;-0.815918;0.117188;0.027588;0.068780;-0.439586;-0.007675;-0.895530
28878;7.787876;-0.419240;6.012691;-0.001064;-0.002435;-0.008720;-0.816650;0.109375;0.035156;0.068771;-0.439582;-0.007691;-0.895533
28879;7.763874;-0.433584;5.965625;0.000356;-0.004363;-0.007080;-0.819092;0.114258;0.042969;0.068731;-0.439649;-0.007733;-0.895503
28880;7.765345;-0.434131;6.011155;0.008950;-0.007592;-0.008855;-0.818848;0.117920;0.031738;0.068741;-0.439793;-0.007837;-0.895430
28881;7.772560;-0.417994;6.029558;-0.002175;-0.003663;0.001512;-0.813721;0.105469;0.029297;0.068802;-0.439829;-0.007804;-0.895408
28882;7.768970;-0.412271;5.969276;-0.002748;-0.001385;0.004745;-0.817627;0.111328;0.036377;0.068818;-0.439829;-0.007788;-0.895407
28883;7.767449;-0.387316;5.993548;-0.007282;0.000308;0.008088;-0.816650;0.113037;0.036621;0.068875;-0.439872;-0.007711;-0.895382
28884;7.758848;-0.401641;6.006703;-0.002971;-0.005026;0.004072;-0.816650;0.109375;0.026611;0.068930;-0.439954;-0.007680;-0.895338
28885;7.771631;-0.395721;6.052889;0.002064;0.001110;0.006335;-0.811279;0.119141;0.033203;0.068990;-0.439910;-0.007681;-0.895355
28886;7.761089;-0.431201;6.028652;0.000382;0.003623;0.003434;-0.815674;0.102539;0.029785;0.069103;-0.439902;-0.007662;-0.895350
28887;7.782943;-0.435875;5.991289;0.003066;0.001345;0.000777;-0.822754;0.123779;0.036865;0.069081;-0.439880;-0.007706;-0.895363
28888;7.779060;-0.455527;5.986165;-0.001098;0.003447;0.000709;-0.812744;0.117188;0.032227;0.069169;-0.439899;-0.007672;-0.895347
28889;7.749752;-0.440599;5.950722;-0.003313;0.004012;0.001631;-0.819092;0.112793;0.038330;0.069236;-0.439882;-0.007636;-0.895350
28890;7.762306;-0.408398;5.942493;-0.001182;-0.006545;0.002301;-0.817383;0.118896;0.028320;0.069275;-0.439985;-0.007629;-0.895296
28891;7.778566;-0.406039;6.001765;0.002724;-0.006505;-0.002067;-0.820068;0.116211;0.030762;0.069328;-0.440013;-0.007650;-0.895279
28892;7.784068;-0.412025;5.982429;0.006968;-0.000174;-0.000418;-0.817627;0.110107;0.037842;0.069386;-0.440007;-0.007698;-0.895277
28893;7.796030;-0.476827;5.974821;0.006340;0.001559;-0.001444;-0.816895;0.105957;0.037354;0.069412;-0.440040;-0.007764;-0.895258
28894;7.809214;-0.445641;6.013184;0.003432;0.000196;0.000540;-0.814697;0.118896;0.033936;0.069418;-0.440080;-0.007810;-0.895237
28895;7.745181;-0.434569;6.093457;-0.007823;-0.003293;0.001893;-0.812012;0.110352;0.027344;0.069473;-0.440131;-0.007741;-0.895208
28896;7.761850;-0.355204;5.910800;-0.011410;-0.001911;-0.004582;-0.815674;0.118164;0.042969;0.069413;-0.440124;-0.007683;-0.895217
28897;7.782523;-0.409463;6.014247;0.003416;-0.004576;-0.003130;-0.809326;0.104004;0.031250;0.069475;-0.440241;-0.007726;-0.895154
28898;7.769566;-0.439721;5.975651;-0.006129;-0.001131;-0.004727;-0.814941;0.110352;0.034424;0.069403;-0.440252;-0.007723;-0.895155
28899;7.750127;-0.436525;5.980157;0.001132;-0.007768;-0.013312;-0.820801;0.112793;0.036377;0.069323;-0.440330;-0.007796;-0.895122
28900;7.744512;-0.402574;6.022173;-0.011974;-0.011841;-0.011273;-0.821045;0.114014;0.033447;0.069214;-0.440457;-0.007760;-0.895068
28901;7.727784;-0.375998;5.938548;-0.012033;-0.012381;-0.015534;-0.818359;0.116699;0.036865;0.069077;-0.440566;-0.007734;-0.895025
28902;7.744385;-0.395406;6.004990;0.008327;-0.016492;-0.022990;-0.812500;0.108398;0.041504;0.068987;-0.440718;-0.007890;-0.894956
28903;7.779294;-0.411123;5.973792;0.009807;-0.013191;-0.026615;-0.815674;0.118408;0.038330;0.068847;-0.440874;-0.008088;-0.894888
28904;7.814757;-0.401838;5.934473;0.017869;-0.015235;-0.030922;-0.812256;0.113037;0.042969;0.068755;-0.441018;-0.008342;-0.894822
28905;7.859827;-0.359487;6.045167;0.008759;-0.007633;-0.024820;-0.817871;0.115967;0.044434;0.068660;-0.441141;-0.008516;-0.894767
28906;7.797480;-0.393679;5.984078;-0.009430;0.001683;-0.022044;-0.812988;0.114990;0.040039;0.068528;-0.441213;-0.008532;-0.894741
28907;7.753796;-0.381385;5.934305;-0.013551;-0.002003;-0.018345;-0.820801;0.111572;0.038574;0.068408;-0.441285;-0.008506;-0.894715
28908;7.766445;-0.347395;5.925883;-0.010019;-0.002362;-0.019307;-0.814941;0.108154;0.045898;0.068256;-0.441344;-0.008511;-0.894698
28909;7.783272;-0.367423;5.914827;-0.000834;-0.004642;-0.017480;-0.823242;0.116211;0.038818;0.068162;-0.441466;-0.008598;-0.894644
28910;7.844875;-0.373529;5.944757;0.006546;-0.010171;-0.017553;-0.815430;0.112793;0.039795;0.068103;-0.441573;-0.008712;-0.894594
28911;7.829855;-0.375004;6.008718;0.002803;-0.007122;-0.016767;-0.819092;0.110840;0.032715;0.068039;-0.441667;-0.008807;-0.894552
28912;7.824605;-0.340596;5.972878;-0.012391;0.002986;-0.017472;-0.811523;0.109619;0.031738;0.067883;-0.441644;-0.008778;-0.894576
28913;7.773305;-0.369955;6.037620;-0.004093;-0.000100;-0.011585;-0.817139;0.114990;0.033936;0.067811;-0.441634;-0.008796;-0.894586
28914;7.790590;-0.368645;5.940974;-0.027443;0.017360;-0.002806;-0.816406;0.111816;0.028809;0.067740;-0.441523;-0.008587;-0.894648
28915;7.777953;-0.378258;5.941921;0.000096;0.001005;-0.004674;-0.819580;0.104248;0.041016;0.067730;-0.441484;-0.008599;-0.894668
28916;7.781613;-0.408032;6.009811;-0.003085;-0.004541;-0.007624;-0.823975;0.109619;0.038574;0.067665;-0.441569;-0.008631;-0.894631
28917;7.729914;-0.409601;5.972569;-0.003519;-0.011816;-0.008974;-0.811523;0.102783;0.033203;0.067602;-0.441690;-0.008652;-0.894575
28918;7.707856;-0.425886;5.970477;0.004026;-0.015803;-0.009461;-0.811035;0.106201;0.032227;0.067547;-0.441802;-0.008746;-0.894524
28919;7.781962;-0.397886;5.944508;0.007291;-0.023459;-0.009012;-0.813232;0.104736;0.031250;0.067522;-0.441961;-0.008860;-0.894446
28920;7.836395;-0.391510;5.930819;0.011615;-0.031891;-0.006689;-0.818604;0.103271;0.041260;0.067514;-0.442172;-0.008999;-0.894341
28921;7.893105;-0.388817;6.009239;0.019957;-0.029740;-0.006070;-0.809326;0.112793;0.045654;0.067536;-0.442424;-0.009206;-0.894212
28922;7.848489;-0.495629;6.076172;0.015910;-0.025013;-0.000783;-0.815186;0.114990;0.038330;0.067669;-0.442675;-0.009360;-0.894076
28923;7.816365;-0.521441;6.119593;0.035357;-0.016126;0.002543;-0.822266;0.110596;0.041504;0.067884;-0.442796;-0.009626;-0.893997
28924;7.886552;-0.584704;6.159236;0.063286;-0.025612;0.010924;-0.811279;0.109375;0.044189;0.068225;-0.442989;-0.010078;-0.893870
28925;7.993575;-0.595635;6.189722;0.095294;-0.039228;0.018269;-0.812012;0.109131;0.048096;0.068760;-0.443284;-0.010762;-0.893675
28926;7.958056;-0.684994;6.243604;0.103164;-0.027774;0.040040;-0.818115;0.117188;0.037598;0.069490;-0.443513;-0.011421;-0.893497
28927;7.984925;-0.714763;6.147485;0.114135;-0.013255;0.072575;-0.810791;0.109619;0.038086;0.070507;-0.443560;-0.012004;-0.893387
28928;7.868566;-0.802530;6.193255;0.125847;-0.011029;0.095806;-0.816406;0.108643;0.046143;0.071709;-0.443587;-0.012601;-0.893269
28929;7.731909;-0.916057;6.096549;0.122884;0.004379;0.120238;-0.818115;0.116455;0.040039;0.073073;-0.443554;-0.013085;-0.893168
28930;7.582699;-0.990114;5.937379;0.146995;-0.008042;0.131658;-0.819580;0.123291;0.041260;0.074627;-0.443561;-0.013696;-0.893027
28931;7.586724;-0.970746;5.816515;0.207926;-0.051419;0.150397;-0.808838;0.119141;0.040283;0.076564;-0.443863;-0.014711;-0.892697
28932;7.630941;-0.971445;5.801036;0.288090;-0.092011;0.161447;-0.809814;0.113281;0.041992;0.078861;-0.444406;-0.016317;-0.892198
28933;7.560690;-1.030703;5.774152;0.337497;-0.131091;0.189039;-0.821777;0.130127;0.046631;0.081489;-0.445211;-0.018219;-0.891524
28934;7.462525;-1.149189;5.703355;0.367045;-0.154385;0.214327;-0.808594;0.129150;0.047363;0.084467;-0.446190;-0.020244;-0.890713
28935;7.413381;-1.241042;5.472491;0.370627;-0.187040;0.230636;-0.811279;0.130615;0.044189;0.087576;-0.447402;-0.022265;-0.889756
28936;7.438493;-1.389684;5.301683;0.352873;-0.209843;0.253543;-0.813721;0.130371;0.049561;0.090754;-0.448760;-0.024076;-0.888706
28937;7.330498;-1.493502;5.019954;0.310861;-0.202239;0.281971;-0.808105;0.144043;0.044189;0.093960;-0.450110;-0.025464;-0.887651
28938;7.539198;-1.494749;5.080253;0.331183;-0.244342;0.253673;-0.813232;0.145020;0.055908;0.097074;-0.451702;-0.027126;-0.886457
28939;8.030634;-1.369752;5.502290;0.324115;-0.310703;0.185006;-0.813721;0.130615;0.055664;0.099620;-0.453821;-0.029050;-0.885030
28940;8.366521;-1.197822;5.963513;0.278541;-0.303001;0.109617;-0.805908;0.143799;0.064697;0.101334;-0.455865;-0.030919;-0.883721
28941;8.476070;-1.047595;6.177942;0.186308;-0.234650;0.033664;-0.803955;0.139648;0.060547;0.102235;-0.457503;-0.032334;-0.882720
28942;8.286077;-0.869946;6.279121;0.082941;-0.130200;-0.028378;-0.806152;0.145752;0.068848;0.102285;-0.458397;-0.033134;-0.882220
28943;7.680525;-0.689559;6.280569;-0.044076;-0.001725;-0.080969;-0.800781;0.145996;0.064453;0.101528;-0.458483;-0.033083;-0.882265
28944;6.790851;-0.347706;5.861409;-0.182115;0.076960;-0.156374;-0.811279;0.138428;0.057617;0.099731;-0.458059;-0.032242;-0.882721
28945;5.766999;0.154442;5.474894;-0.265974;0.097159;-0.254205;-0.806396;0.134033;0.058105;0.096846;-0.457480;-0.031138;-0.883382
28946;5.193792;0.596966;5.284239;-0.230966;0.011270;-0.396651;-0.806885;0.127197;0.053711;0.093029;-0.457471;-0.030906;-0.883805
28947;5.484427;0.987874;5.578131;-0.085437;-0.252937;-0.558929;-0.812988;0.122314;0.072021;0.088499;-0.459213;-0.032575;-0.883306
28948;6.692771;0.874467;6.542892;0.133930;-0.527351;-0.684677;-0.808594;0.117188;0.079590;0.083794;-0.462851;-0.036522;-0.881711
28949;7.620110;0.774619;6.922200;0.138793;-0.579916;-0.683531;-0.815674;0.099121;0.080566;0.079132;-0.466853;-0.040543;-0.879854
28950;8.212911;0.752285;6.402376;0.147590;-0.448173;-0.539679;-0.817627;0.099121;0.090576;0.075537;-0.469861;-0.043979;-0.878403
28951;9.212435;0.501698;6.789901;0.290042;-0.374867;-0.402586;-0.820312;0.098389;0.097412;0.073566;-0.472305;-0.047874;-0.877054
28952;10.519740;0.136412;7.576049;0.241361;-0.301964;-0.256371;-0.816895;0.091064;0.094238;0.072520;-0.474309;-0.050792;-0.875895
28953;10.809567;-0.198907;7.537577;0.000028;0.035838;-0.010141;-0.818115;0.093018;0.095703;0.072455;-0.474049;-0.050781;-0.876042
28954;9.681377;-0.223374;7.461346;-0.148220;0.259604;0.084283;-0.813477;0.095459;0.089844;0.072593;-0.472295;-0.049175;-0.877068
28955;8.158033;-0.484892;7.318770;-0.179547;0.313490;0.091978;-0.823242;0.095459;0.087891;0.072712;-0.470153;-0.047286;-0.878313
28956;7.093313;-0.293108;6.834970;-0.125876;0.255980;0.050220;-0.816650;0.098145;0.077881;0.072680;-0.468384;-0.045971;-0.879329
28957;6.272562;-0.217037;6.535860;-0.061697;0.229279;0.007142;-0.815674;0.093506;0.079834;0.072620;-0.466715;-0.045331;-0.880255
28958;5.662161;-0.112846;6.173150;-0.067047;0.174909;-0.040960;-0.820801;0.104004;0.084229;0.072117;-0.465456;-0.044850;-0.880987
28959;5.488298;0.046481;5.954891;-0.028975;0.031162;-0.103121;-0.818604;0.094482;0.077148;0.071301;-0.465249;-0.044983;-0.881156
28960;5.693004;0.197494;6.051570;0.012010;-0.150502;-0.161430;-0.824951;0.090332;0.076172;0.070114;-0.466282;-0.045746;-0.880666
28961;6.040907;0.276782;6.216569;0.035229;-0.283530;-0.184515;-0.819336;0.087891;0.084961;0.068780;-0.468242;-0.046841;-0.879673
28962;6.584816;0.263378;6.288394;0.083303;-0.370667;-0.179232;-0.821533;0.083252;0.086182;0.067633;-0.470844;-0.048312;-0.878293
28963;7.097613;0.325755;6.344982;0.117907;-0.391551;-0.140958;-0.813721;0.086914;0.089111;0.066884;-0.473561;-0.049894;-0.876799
28964;7.403078;0.305891;6.489571;0.120383;-0.342998;-0.079342;-0.820557;0.079834;0.097412;0.066673;-0.475935;-0.051249;-0.875451
28965;7.470610;0.336676;6.523144;0.108920;-0.242212;-0.003830;-0.817627;0.081543;0.106689;0.066939;-0.477624;-0.052131;-0.874458
28966;7.451195;0.363490;6.436037;0.114626;-0.160542;0.052748;-0.821289;0.078369;0.102295;0.067667;-0.478777;-0.052777;-0.873732
28967;7.244808;0.439055;6.459254;0.115375;-0.109126;0.066614;-0.815430;0.076904;0.102783;0.068511;-0.479514;-0.053339;-0.873228
28968;6.977816;0.531021;6.446918;0.115920;-0.081264;0.063394;-0.806152;0.085205;0.113037;0.069338;-0.480042;-0.053897;-0.872839
28969;6.840268;0.608858;6.343292;0.118228;-0.076850;0.054725;-0.818359;0.088623;0.099121;0.070135;-0.480599;-0.054515;-0.872430
28970;6.887084;0.568167;6.450785;0.131859;-0.102353;0.050248;-0.814941;0.091309;0.111328;0.071020;-0.481229;-0.055303;-0.871961
28971;6.890437;0.451854;6.474835;0.087292;-0.138099;0.053952;-0.814697;0.083740;0.116455;0.071697;-0.482217;-0.055755;-0.871331
28972;6.899461;0.316560;6.318458;0.037307;-0.172247;0.069076;-0.816895;0.083984;0.108398;0.072179;-0.483504;-0.055754;-0.870578
28973;6.976019;0.198748;6.331494;-0.005210;-0.211148;0.075581;-0.814941;0.092773;0.111816;0.072567;-0.485031;-0.055462;-0.869714
28974;7.158632;0.294264;6.401191;-0.033811;-0.259229;0.069092;-0.809814;0.091797;0.122314;0.072833;-0.486927;-0.055056;-0.868658
28975;7.416215;0.392890;6.475186;-0.079426;-0.272383;0.076020;-0.811279;0.092041;0.120850;0.072904;-0.488991;-0.054270;-0.867541
28976;7.740354;0.395844;6.631399;-0.103484;-0.252286;0.093364;-0.814453;0.090576;0.124268;0.073036;-0.490894;-0.053238;-0.866519
28977;8.007767;0.567474;6.944721;-0.131187;-0.214034;0.107353;-0.810791;0.094727;0.135498;0.073145;-0.492533;-0.051904;-0.865660
28978;8.274733;0.902680;7.193135;-0.156948;-0.137205;0.137481;-0.807861;0.093018;0.133057;0.073374;-0.493698;-0.050207;-0.865077
28979;9.166164;1.284354;7.619541;-0.064117;-0.085928;0.157401;-0.811768;0.094482;0.132080;0.074155;-0.494414;-0.049062;-0.864667
28980;11.235257;0.903489;9.323773;0.199262;-0.216488;0.125390;-0.814697;0.095703;0.129395;0.075743;-0.495873;-0.050030;-0.863638
28981;13.143529;0.687525;10.207382;0.070473;-0.239976;0.058617;-0.811279;0.102783;0.129150;0.076337;-0.497513;-0.050373;-0.862622
28982;12.813426;0.959585;8.132990;-0.568411;0.157780;0.062318;-0.815674;0.105225;0.133057;0.074567;-0.496679;-0.045919;-0.863505
28983;12.311602;0.932934;7.129656;-0.768616;0.277848;0.015005;-0.819580;0.098877;0.127197;0.071656;-0.495099;-0.040143;-0.864946
28984;10.221015;0.952019;6.440389;-1.286824;0.585446;0.062924;-0.809570;0.102295;0.119629;0.067020;-0.491555;-0.030216;-0.867738
28985;8.284408;0.113807;5.533347;-1.477285;0.704701;0.135903;-0.814453;0.099854;0.116455;0.062236;-0.487198;-0.018606;-0.870872
28986;6.991437;-0.323101;4.193518;-1.468210;0.762452;0.254813;-0.815918;0.097168;0.110352;0.058302;-0.482363;-0.006516;-0.874005
28987;6.008670;-0.766060;2.330950;-1.204886;0.640799;0.286645;-0.803955;0.107666;0.108154;0.055587;-0.478217;0.003767;-0.876473
28988;5.227062;-2.083895;1.505057;-0.527540;0.213068;0.098688;-0.806641;0.102295;0.108154;0.054313;-0.476895;0.008062;-0.877244
28989;5.369283;-2.484973;1.603791;-0.076131;-0.443491;-0.131599;-0.807373;0.098145;0.112793;0.053098;-0.480182;0.007916;-0.875525
28990;6.182632;-1.555390;1.388452;0.109097;-1.048214;-0.170579;-0.804932;0.097656;0.113281;0.052349;-0.487768;0.006026;-0.871381
28991;7.532138;-0.873925;1.733510;0.238648;-1.451691;-0.114395;-0.802490;0.089600;0.154785;0.052639;-0.498090;0.003211;-0.865520
28992;9.799010;-0.655919;2.544468;0.315643;-1.467652;-0.313719;-0.811523;0.092041;0.158203;0.051584;-0.508555;-0.000870;-0.859482
28993;11.941479;0.066295;5.176895;0.675136;-1.344389;-0.537427;-0.808838;0.089600;0.180908;0.050608;-0.517788;-0.008509;-0.853968
28994;12.279575;0.817573;5.720400;0.271848;-0.661106;-0.312556;-0.804443;0.089111;0.191406;0.049547;-0.522325;-0.012046;-0.851221
28995;11.088763;0.842242;4.745800;-0.426208;0.059688;-0.105127;-0.798340;0.077881;0.180176;0.047023;-0.522062;-0.009471;-0.851558
28996;9.606807;0.289273;5.090819;-0.586346;0.354006;-0.054515;-0.799072;0.081543;0.176514;0.044114;-0.519703;-0.005337;-0.853191
28997;8.211245;-0.443877;5.120762;-0.635540;0.463788;-0.066022;-0.806396;0.084229;0.180664;0.041010;-0.516569;-0.000951;-0.855263
28998;7.023103;-0.685787;4.272094;-0.563272;0.387721;-0.162557;-0.805420;0.070557;0.172119;0.037571;-0.513984;0.002416;-0.856973
28999;5.969390;-1.093574;3.601461;-0.396253;0.072303;-0.276902;-0.804932;0.068848;0.168701;0.033885;-0.513561;0.004150;-0.857374
29000;6.173065;-1.182486;3.703130;-0.106294;-0.229905;-0.314746;-0.806885;0.062256;0.178223;0.031242;-0.515196;0.003518;-0.856496
29001;7.146347;-1.213848;4.319336;-0.013204;-0.377127;-0.320769;-0.796875;0.061768;0.180176;0.028901;-0.517884;0.002196;-0.854960
29002;7.825721;-1.034916;4.588170;0.032105;-0.335329;-0.264636;-0.810303;0.056641;0.183838;0.027225;-0.520251;0.000741;-0.853579
29003;7.929000;-0.954778;4.684750;0.053111;-0.279383;-0.235546;-0.802734;0.056641;0.191895;0.025826;-0.522183;-0.000686;-0.852442
29004;7.852878;-0.754696;4.729336;0.021822;-0.191517;-0.189868;-0.807861;0.048096;0.196289;0.024650;-0.523533;-0.001729;-0.851647
29005;7.532369;-0.745430;4.929561;-0.093667;-0.068435;-0.165276;-0.805420;0.046631;0.187256;0.023038;-0.524029;-0.001710;-0.851387
29006;7.365933;-0.686756;4.734420;-0.248312;0.045258;-0.137005;-0.794678;0.043213;0.187500;0.020990;-0.523691;-0.000451;-0.851650
29007;6.960084;-0.900745;4.452482;-0.328287;0.111070;-0.128594;-0.800049;0.049561;0.182617;0.018621;-0.522915;0.001438;-0.852180
29008;6.592526;-1.082736;4.079159;-0.332694;0.093559;-0.141456;-0.803223;0.041260;0.187500;0.016332;-0.522236;0.003135;-0.852639
29009;6.500301;-1.206554;3.714241;-0.263690;0.023804;-0.160782;-0.799072;0.040771;0.188965;0.014087;-0.522068;0.004352;-0.852776
29010;6.709859;-1.303528;3.657349;-0.132897;-0.064799;-0.174711;-0.803711;0.034912;0.184814;0.012355;-0.522530;0.004517;-0.852520
29011;7.135254;-1.273584;3.918666;0.018375;-0.155257;-0.202311;-0.800293;0.030762;0.188477;0.011030;-0.523578;0.003566;-0.851899
29012;7.602584;-1.225620;3.867462;0.077518;-0.147943;-0.195737;-0.798096;0.033203;0.193359;0.009969;-0.524580;0.002256;-0.851300
29013;8.547405;-1.456032;4.535536;0.306147;-0.265481;-0.235785;-0.802490;0.030029;0.186523;0.009724;-0.526417;-0.000972;-0.850171
29014;9.799021;-1.287604;5.514625;0.552924;-0.339338;-0.277836;-0.792969;0.025391;0.201172;0.010245;-0.528673;-0.006069;-0.848742
29015;10.752329;-0.999778;5.717240;0.573034;-0.239244;-0.252389;-0.794678;0.020264;0.205322;0.010956;-0.530279;-0.011160;-0.847679
29016;10.905288;-0.857634;5.720934;0.513257;-0.038725;-0.178527;-0.796631;0.017334;0.200195;0.011860;-0.530470;-0.015396;-0.847481
29017;11.301625;-0.708532;6.188353;0.459942;0.199674;-0.068044;-0.807373;0.019775;0.207520;0.013293;-0.528952;-0.018665;-0.848343
29018;12.309885;-0.326199;7.240486;0.693359;0.317134;-0.102376;-0.805176;0.024414;0.196289;0.015581;-0.526601;-0.023800;-0.849637
29019;13.698210;-0.201371;8.303369;0.836777;0.329861;-0.176927;-0.806152;0.017578;0.181152;0.018066;-0.524067;-0.030345;-0.850945
29020;13.709548;-0.053091;6.772159;0.452638;0.530070;0.062619;-0.797119;0.026855;0.180664;0.020481;-0.520144;-0.032888;-0.853199
29021;12.688716;0.706392;4.449128;0.217250;0.630568;0.321490;-0.804932;0.029541;0.180176;0.023867;-0.515658;-0.032807;-0.855833
29022;10.295675;1.136068;4.063790;0.071052;0.766046;0.474508;-0.802246;0.028564;0.165039;0.027674;-0.510293;-0.030954;-0.858998
29023;8.655934;1.525202;4.373550;-0.210285;0.845263;0.530681;-0.804688;0.045410;0.151367;0.030526;-0.504380;-0.026636;-0.862531
29024;7.642722;2.646521;3.747250;-0.521784;0.700864;0.295670;-0.802002;0.058838;0.139404;0.030636;-0.499484;-0.021378;-0.865518
29025;7.088900;3.611183;2.928678;-0.596303;0.363533;0.008961;-0.800049;0.047607;0.138672;0.028606;-0.496958;-0.017146;-0.867133
29026;7.081222;3.491058;2.893128;-0.513042;-0.046393;-0.245478;-0.804199;0.037598;0.145752;0.024717;-0.497349;-0.014410;-0.867079
29027;7.393287;2.814784;3.316285;-0.399927;-0.246979;-0.404307;-0.805908;0.035889;0.150146;0.019959;-0.499165;-0.013069;-0.866178
29028;8.377999;1.638866;3.990843;-0.134139;-0.257396;-0.461173;-0.807129;0.024902;0.153076;0.016032;-0.501000;-0.014022;-0.865185
29029;10.130923;0.630152;4.725817;0.046750;-0.338048;-0.463295;-0.802246;0.016113;0.155273;0.012720;-0.503374;-0.016182;-0.863823
29030;11.093687;-0.055627;5.170861;0.044162;-0.252115;-0.352288;-0.802490;0.026855;0.148438;0.010139;-0.505127;-0.017772;-0.862802
29031;10.458903;-0.596016;4.870459;-0.151748;0.103890;-0.057130;-0.803467;0.013916;0.149658;0.009408;-0.504319;-0.017088;-0.863297
29032;10.153417;-0.695739;4.057119;-0.311104;0.360147;0.229722;-0.803955;0.014893;0.159912;0.009733;-0.501728;-0.013690;-0.864862
29033;9.105375;-0.479923;3.987192;-0.323917;0.407504;0.323819;-0.802490;0.019287;0.137939;0.010579;-0.498887;-0.009807;-0.866547
29034;7.748554;-0.196603;4.236271;-0.433326;0.320261;0.285882;-0.804199;0.030029;0.143799;0.010799;-0.496570;-0.005282;-0.867914
29035;6.831892;-0.209839;4.239675;-0.463816;0.105578;0.178506;-0.792480;0.026367;0.141357;0.010289;-0.495858;-0.001248;-0.868342
29036;6.247501;-0.114803;4.292051;-0.410516;-0.061383;0.096374;-0.793945;0.026611;0.141602;0.009238;-0.496343;0.002189;-0.868074
29037;6.044586;0.032829;4.270003;-0.369396;-0.079424;0.068588;-0.813721;0.026367;0.136475;0.008163;-0.496944;0.005215;-0.867729
29038;6.029728;-0.018336;4.332248;-0.299690;-0.006281;0.072561;-0.806641;0.025879;0.144043;0.007450;-0.496943;0.007804;-0.867716
29039;6.047083;-0.103312;4.402651;-0.233128;0.009572;0.052028;-0.794678;0.021484;0.145020;0.006796;-0.496874;0.009818;-0.867741
29040;6.198323;-0.087422;4.507030;-0.114349;0.016302;0.036870;-0.809814;0.036621;0.138916;0.006361;-0.496764;0.011029;-0.867792
29041;6.416687;-0.139235;4.554027;0.009272;0.008277;0.039008;-0.805908;0.034912;0.147461;0.006983;-0.496668;0.010946;-0.867844
29042;6.496124;-0.379340;4.612953;0.139556;0.021219;0.068672;-0.802734;0.029297;0.138428;0.008229;-0.496521;0.010081;-0.867927
29043;6.442216;-0.465853;4.770819;0.214973;0.056468;0.118868;-0.799316;0.026367;0.149658;0.009948;-0.496051;0.009127;-0.868188
29044;6.244436;-0.345074;4.668641;0.261523;0.114331;0.192200;-0.804443;0.032471;0.136719;0.012179;-0.495221;0.008232;-0.868642
29045;6.237152;-0.011838;4.742287;0.328284;0.106394;0.221331;-0.797852;0.041992;0.142334;0.015047;-0.494365;0.006938;-0.869096
29046;6.427710;0.147439;5.097966;0.352674;-0.009420;0.215719;-0.804688;0.037598;0.153809;0.018135;-0.494396;0.005217;-0.869032
29047;6.789639;0.339079;5.340163;0.296244;-0.102537;0.226761;-0.782715;0.041748;0.143066;0.020751;-0.495154;0.004148;-0.868547
29048;7.268839;0.651682;5.643060;0.186656;-0.157543;0.171094;-0.802002;0.040527;0.140381;0.022613;-0.496282;0.003612;-0.867859
29049;8.266296;0.810189;6.327006;0.095586;-0.228730;0.047883;-0.797363;0.046143;0.137695;0.023105;-0.497887;0.003378;-0.866927
29050;9.547966;0.891346;7.641864;0.041425;-0.202617;-0.085895;-0.791992;0.045166;0.143066;0.022631;-0.499294;0.002824;-0.866132
29051;10.684221;0.835757;8.586450;-0.069075;0.004730;-0.137627;-0.794189;0.037354;0.146240;0.021303;-0.499247;0.002871;-0.866193
29052;10.927925;0.585081;8.177912;-0.343279;0.398771;-0.051156;-0.800781;0.042236;0.135742;0.019226;-0.496405;0.005502;-0.867861
29053;10.756587;0.190783;7.541206;-0.419605;0.719692;0.087930;-0.798828;0.044189;0.136719;0.018097;-0.491200;0.009118;-0.870811
29054;11.923719;-0.776384;7.901752;-0.151226;0.713803;0.209228;-0.799805;0.049316;0.128906;0.018903;-0.486030;0.011217;-0.873666
29055;12.883495;-2.068752;8.110078;-0.043012;0.612651;0.355092;-0.800049;0.052490;0.116699;0.021296;-0.481559;0.013022;-0.876058
29056;11.104139;-2.644146;6.348732;-0.242287;0.746452;0.590757;-0.802490;0.055420;0.113281;0.024585;-0.476072;0.017300;-0.878892
29057;8.595448;-2.116156;4.202947;-0.269523;0.638265;0.637183;-0.805664;0.055420;0.100830;0.027900;-0.471370;0.022074;-0.881218
29058;7.176580;-1.071483;3.033924;-0.172548;0.389375;0.542812;-0.798584;0.076416;0.097656;0.030712;-0.468426;0.025944;-0.882588
29059;7.869681;-1.291264;2.888234;0.061347;-0.006820;0.410748;-0.801514;0.079102;0.090576;0.034045;-0.468396;0.027046;-0.882448
29060;8.977997;-1.846228;3.437740;0.310417;-0.350527;0.312047;-0.802490;0.090576;0.102783;0.037666;-0.470790;0.025929;-0.881059
29061;9.353595;-2.146053;3.147870;0.427165;-0.491629;0.326801;-0.802490;0.086182;0.105957;0.041998;-0.474221;0.023801;-0.879082
29062;9.234042;-2.107241;2.364783;0.683403;-0.581659;0.383053;-0.801758;0.095459;0.112061;0.047480;-0.478152;0.020258;-0.876759
29063;10.014787;-1.644702;3.177547;1.023911;-0.746922;0.341703;-0.793213;0.096680;0.125244;0.054139;-0.483121;0.013921;-0.873767
29064;11.192302;-0.509836;5.466691;1.167564;-0.686581;0.316725;-0.796875;0.092529;0.134521;0.060993;-0.487555;0.006586;-0.870934
29065;11.279255;0.638560;6.402777;0.901442;-0.326009;0.325608;-0.790527;0.106689;0.129639;0.066420;-0.489450;0.001726;-0.869496
29066;10.005178;0.877673;5.758356;0.551977;-0.011980;0.341042;-0.789307;0.116455;0.130859;0.070947;-0.489219;-0.000664;-0.869271
29067;9.026798;0.531697;5.332193;0.370085;0.141677;0.285125;-0.787842;0.103027;0.131104;0.074420;-0.487988;-0.001977;-0.869670
29068;8.235666;0.228824;5.139207;0.233386;0.355048;0.220864;-0.792236;0.135010;0.127930;0.076324;-0.485278;-0.001973;-0.871020
29069;7.023921;-0.226228;5.011168;0.179994;0.491082;0.127715;-0.788574;0.121094;0.122314;0.078072;-0.481648;-0.002543;-0.872876
29070;6.092061;-0.543441;4.184402;0.195237;0.445727;0.056162;-0.788086;0.128174;0.111084;0.078947;-0.478316;-0.003183;-0.874627
29071;5.126460;-0.561599;3.891975;0.257729;0.297427;-0.031517;-0.794678;0.115967;0.110107;0.079729;-0.475997;-0.004938;-0.875812
29072;4.708625;-0.604950;3.852562;0.329281;0.089912;-0.118284;-0.796387;0.120361;0.102783;0.079696;-0.475133;-0.007341;-0.876266
29073;4.870358;-0.563269;3.906659;0.344707;-0.047692;-0.211269;-0.792725;0.113770;0.104736;0.079318;-0.475234;-0.010509;-0.876214
29074;5.357746;-0.729402;3.967384;0.329487;-0.136820;-0.237885;-0.787354;0.117676;0.100830;0.078581;-0.475998;-0.013656;-0.875822
29075;5.825975;-0.870849;4.098775;0.287200;-0.187702;-0.236457;-0.788818;0.116943;0.107422;0.078053;-0.477141;-0.016783;-0.875193
29076;6.223667;-0.989335;4.190674;0.215358;-0.210728;-0.216195;-0.798828;0.118652;0.119873;0.077273;-0.478521;-0.019276;-0.874457
29077;6.422476;-1.165584;4.423114;0.113094;-0.186518;-0.199024;-0.786865;0.108643;0.113770;0.075945;-0.479832;-0.020814;-0.873819
29078;6.680144;-1.271763;4.422063;-0.029188;-0.120866;-0.161341;-0.793945;0.104492;0.115967;0.074532;-0.480720;-0.021188;-0.873444
29079;6.852387;-1.219485;4.160992;-0.132811;-0.098099;-0.154153;-0.786377;0.104980;0.118164;0.072639;-0.481502;-0.020673;-0.873185
29080;6.870490;-1.021679;4.164608;-0.176056;-0.097076;-0.189538;-0.800537;0.100830;0.121094;0.070446;-0.482303;-0.020089;-0.872936
29081;7.060787;-0.736417;4.010757;-0.185780;-0.058495;-0.207270;-0.790527;0.099121;0.122070;0.067894;-0.482820;-0.019346;-0.872870
29082;7.722788;-0.874130;4.668899;-0.091183;-0.066127;-0.215403;-0.799561;0.098633;0.124512;0.065813;-0.483339;-0.019435;-0.872740
29083;8.950499;-1.101053;6.150015;0.079189;-0.056312;-0.205298;-0.790039;0.089600;0.125488;0.064417;-0.483695;-0.020680;-0.872618
29084;10.083506;-1.022394;7.055033;0.165658;-0.082381;-0.204932;-0.797119;0.086670;0.124756;0.063361;-0.484194;-0.022533;-0.872373
29085;10.678948;-0.952206;6.921989;0.241426;-0.016775;-0.162206;-0.800049;0.088867;0.130127;0.062906;-0.484172;-0.024705;-0.872359
29086;10.878373;-1.216960;6.695340;0.229015;0.212505;-0.034311;-0.794678;0.086426;0.121338;0.063269;-0.482535;-0.026110;-0.873198
29087;11.848579;-1.015263;7.077640;0.273533;0.417305;0.013482;-0.799072;0.090088;0.108643;0.064404;-0.479367;-0.027646;-0.874811
29088;14.074833;0.373120;8.858560;0.525355;0.325178;-0.140686;-0.803467;0.088379;0.117432;0.065601;-0.476664;-0.031811;-0.876057
29089;13.948992;1.174675;8.415135;-0.022071;0.470633;-0.007310;-0.794189;0.086426;0.107666;0.065191;-0.473277;-0.031118;-0.877947
29090;10.706201;0.666386;6.039798;-0.264985;0.738794;0.171534;-0.798584;0.084717;0.095703;0.065408;-0.468075;-0.027918;-0.880822
29091;9.355524;0.927073;5.887398;-0.275721;0.748762;0.272386;-0.794189;0.095703;0.083008;0.066318;-0.462794;-0.024225;-0.883649
29092;8.204615;1.282916;5.288331;-0.663870;0.900168;0.307997;-0.795898;0.094971;0.084717;0.066288;-0.456580;-0.017644;-0.887034
29093;6.231391;2.179514;4.417610;-0.889997;0.865823;0.154129;-0.798096;0.090332;0.072998;0.063837;-0.450711;-0.009762;-0.890331
29094;5.268140;2.966357;3.682455;-0.875148;0.320570;-0.281653;-0.801025;0.086670;0.060547;0.058133;-0.448790;-0.003889;-0.891736
29095;6.785552;2.829279;4.517380;-0.415297;-0.315018;-0.592834;-0.795410;0.089111;0.063721;0.052085;-0.451306;-0.003062;-0.890843
29096;7.900648;1.884349;5.824466;-0.303366;-0.427926;-0.679875;-0.806396;0.083252;0.069092;0.046078;-0.454592;-0.003639;-0.889500
29097;8.985151;0.878485;5.758287;-0.299733;-0.447902;-0.698065;-0.800781;0.060791;0.081055;0.039854;-0.457997;-0.004281;-0.888049
29098;10.546880;0.258306;5.982106;-0.151646;-0.444315;-0.620235;-0.803711;0.060303;0.088623;0.034555;-0.461318;-0.005568;-0.886544
29099;11.481000;-0.494032;6.365458;-0.247566;-0.307108;-0.482360;-0.803223;0.038086;0.093018;0.029948;-0.463649;-0.005624;-0.885495
29100;11.447317;-1.258126;6.056676;-0.533363;0.109631;-0.235555;-0.800049;0.044189;0.091309;0.025917;-0.462969;-0.002378;-0.885992
29101;10.073869;-0.611429;5.534319;-0.903277;0.430749;-0.025516;-0.802246;0.040039;0.092529;0.022192;-0.459983;0.004348;-0.887640
29102;8.113764;-0.294442;4.700141;-1.010441;0.420797;0.105143;-0.803955;0.045898;0.088623;0.018849;-0.457059;0.012462;-0.889149
29103;6.685159;-0.520812;4.651183;-0.914094;0.247815;0.151354;-0.794678;0.043945;0.084961;0.016275;-0.455363;0.019967;-0.889933
29104;5.633807;-0.561620;4.463004;-0.761268;0.055953;0.066730;-0.804932;0.053223;0.076904;0.013801;-0.455056;0.025932;-0.889978
29105;5.151791;-0.503662;4.226519;-0.600549;-0.127205;-0.013543;-0.802002;0.037109;0.083984;0.011530;-0.456078;0.030286;-0.889349
29106;4.802222;-0.408106;4.249256;-0.529220;-0.232402;-0.072812;-0.806885;0.041748;0.078857;0.008896;-0.457876;0.034024;-0.888320
29107;4.968583;-0.587289;4.216855;-0.463743;-0.309519;-0.085622;-0.797363;0.046875;0.094727;0.006618;-0.460220;0.037119;-0.887004
29108;5.207089;-0.617787;4.249356;-0.362564;-0.350641;-0.078608;-0.801758;0.043945;0.092041;0.004752;-0.462876;0.039484;-0.885531
29109;5.589987;-0.540805;4.343253;-0.263282;-0.380726;-0.073839;-0.797607;0.035156;0.111328;0.003384;-0.465726;0.041108;-0.883967
29110;5.845442;-0.428798;4.634979;-0.114037;-0.403011;-0.049417;-0.804932;0.037842;0.109863;0.002529;-0.468735;0.041865;-0.882343
29111;6.042011;-0.256792;4.934367;0.019985;-0.367837;-0.069853;-0.806396;0.030762;0.111816;0.002111;-0.471472;0.041519;-0.880901
29112;6.438286;-0.469840;5.200828;0.169437;-0.257358;0.010690;-0.805908;0.041504;0.122070;0.002812;-0.473355;0.040422;-0.879939
29113;6.571989;-0.129380;5.337145;0.241349;-0.066543;0.079521;-0.805664;0.036621;0.122559;0.004230;-0.473825;0.039050;-0.879743
29114;6.478590;-0.093423;5.309692;0.299595;0.012480;0.124970;-0.803467;0.046875;0.119141;0.006142;-0.473692;0.037471;-0.879872
29115;6.390638;0.054579;5.080535;0.350851;0.015724;0.125539;-0.803467;0.034180;0.115234;0.008398;-0.473530;0.035426;-0.880025
29116;6.824691;0.049944;5.555930;0.478789;-0.030908;0.120454;-0.797607;0.043457;0.118408;0.011075;-0.473685;0.032485;-0.880025
29117;8.033821;-0.131644;6.813381;0.588348;-0.158647;0.081403;-0.804199;0.051270;0.120361;0.013998;-0.474777;0.028517;-0.879532
29118;9.374710;-0.214454;7.730025;0.529706;-0.282640;0.062788;-0.802490;0.048584;0.126221;0.016559;-0.476777;0.024893;-0.878516
29119;10.190924;-0.413520;7.907210;0.395442;-0.273694;0.077485;-0.811035;0.043701;0.122803;0.018638;-0.478718;0.022348;-0.877486
29120;10.502429;-0.012177;7.766288;0.198800;-0.033682;0.128414;-0.799316;0.050537;0.125244;0.020237;-0.478905;0.021518;-0.877370
29121;11.013915;0.662653;7.433664;0.065482;0.314690;0.191872;-0.798584;0.053955;0.127441;0.021817;-0.476563;0.021893;-0.878597
29122;12.798409;0.115077;9.169521;0.170751;0.301807;0.167581;-0.801758;0.052734;0.121826;0.023566;-0.474304;0.021428;-0.879785
29123;13.039609;-0.297077;8.834402;-0.157049;0.588521;0.335603;-0.806885;0.062012;0.109131;0.025179;-0.469961;0.024107;-0.881999
29124;10.954364;-1.035823;6.307451;-0.365339;0.789547;0.459945;-0.806641;0.067627;0.103516;0.026915;-0.464130;0.028799;-0.884889
29125;9.689494;-1.504921;6.007557;-0.212250;0.602818;0.434626;-0.800781;0.068359;0.097168;0.029051;-0.459628;0.032244;-0.887050
29126;8.747635;-1.259041;4.433156;-0.435287;0.543993;0.375671;-0.802734;0.075684;0.086914;0.029928;-0.455613;0.037092;-0.888901
29127;7.650449;-1.262269;3.335418;-0.390037;0.386374;0.306315;-0.803223;0.080566;0.085938;0.030567;-0.452756;0.041270;-0.890154
29128;7.080486;-1.633552;2.395532;-0.364411;0.202280;0.216779;-0.805176;0.080566;0.076660;0.030657;-0.451283;0.044890;-0.890723
29129;6.959880;-2.328233;2.846236;-0.056170;-0.118455;0.150857;-0.802734;0.085938;0.091553;0.031600;-0.452125;0.045871;-0.890214
29130;7.403451;-2.212051;2.758965;0.168148;-0.432154;0.162956;-0.810303;0.086914;0.087891;0.033467;-0.455240;0.045206;-0.888591
29131;8.195971;-1.761797;2.734403;0.453008;-0.684320;0.176251;-0.803955;0.088867;0.100586;0.036634;-0.460109;0.042414;-0.886092
29132;9.563821;-1.004772;4.341149;0.762321;-0.874490;0.106490;-0.802002;0.099609;0.106445;0.040528;-0.466288;0.037014;-0.882929
29133;10.884891;0.174257;6.003852;0.772959;-0.707923;0.094372;-0.800293;0.092773;0.115967;0.044433;-0.471203;0.031470;-0.880343
29134;10.853174;0.743731;6.141121;0.472323;-0.259152;0.161977;-0.808350;0.095459;0.114014;0.047474;-0.472894;0.028608;-0.879374
29135;10.028481;0.613571;5.667136;0.272471;0.077162;0.187571;-0.814453;0.099365;0.117432;0.049816;-0.472178;0.027456;-0.879666
29136;9.448962;-0.216976;5.554336;0.104291;0.301967;0.129203;-0.805908;0.106934;0.108154;0.050897;-0.469896;0.027463;-0.880825
29137;8.433836;-0.578900;5.424573;0.037997;0.504458;0.056121;-0.801025;0.100342;0.110596;0.051324;-0.466170;0.027636;-0.882773
29138;7.276646;-0.771943;5.198536;0.108109;0.536431;0.002717;-0.800781;0.105957;0.100586;0.051518;-0.462191;0.027164;-0.884866
29139;6.400030;-1.001341;4.859960;0.230759;0.418554;-0.039363;-0.803467;0.096436;0.094971;0.051977;-0.459030;0.025522;-0.886532
29140;5.917712;-0.940758;4.565066;0.367697;0.252330;-0.086357;-0.810059;0.099365;0.083008;0.052584;-0.457036;0.022667;-0.887603
29141;5.866199;-0.899437;4.649534;0.481546;0.156772;-0.073037;-0.796387;0.104736;0.082031;0.053808;-0.455680;0.018940;-0.888314
29142;5.832303;-0.792356;4.693903;0.454029;0.024610;-0.085095;-0.807861;0.102539;0.077148;0.055008;-0.455319;0.015216;-0.888497
29143;6.025970;-0.882089;4.811385;0.447132;-0.047486;-0.119208;-0.805908;0.096436;0.081543;0.055858;-0.455483;0.011431;-0.888417
29144;6.306860;-1.012672;4.860362;0.381583;-0.028775;-0.109996;-0.807129;0.097412;0.083496;0.056466;-0.455537;0.008215;-0.888386
29145;6.271186;-1.146070;4.916367;0.260399;0.038549;-0.094031;-0.810059;0.096191;0.081543;0.056697;-0.455147;0.006001;-0.888589
29146;6.058079;-1.154700;5.000346;0.117457;0.081044;-0.108960;-0.809814;0.079102;0.077148;0.056259;-0.454508;0.004819;-0.888951
29147;5.902683;-1.239488;4.717260;0.017447;0.103559;-0.101652;-0.810547;0.085938;0.077148;0.055483;-0.453738;0.004448;-0.889395
29148;5.824115;-1.139293;4.393356;-0.070330;0.065330;-0.126316;-0.820312;0.096924;0.079590;0.054206;-0.453297;0.004599;-0.889698
29149;5.841990;-0.869522;4.093355;-0.121264;-0.007449;-0.165866;-0.813965;0.089111;0.078125;0.052362;-0.453425;0.004973;-0.889741
29150;6.085722;-0.711465;4.183759;-0.125663;-0.093248;-0.189825;-0.810547;0.075928;0.085205;0.050398;-0.454188;0.005221;-0.889464
29151;7.074821;-0.967353;5.128483;-0.044653;-0.188766;-0.176050;-0.809814;0.082275;0.086182;0.048773;-0.455626;0.004935;-0.888820
29152;8.290338;-1.311537;6.639457;0.016622;-0.217405;-0.145252;-0.810547;0.075439;0.083984;0.047676;-0.457249;0.004253;-0.888050
29153;9.232110;-1.153329;7.310641;0.078194;-0.221706;-0.150283;-0.810303;0.074707;0.096436;0.046825;-0.458870;0.003076;-0.887263
29154;9.802762;-0.926492;7.498091;0.188478;-0.120234;-0.151922;-0.814209;0.069824;0.090088;0.046263;-0.459706;0.001181;-0.886864
29155;10.623661;-0.872263;6.956704;0.128550;0.203452;-0.062359;-0.818115;0.068848;0.088867;0.046193;-0.458160;0.000166;-0.887668
29156;12.154660;-0.751199;7.831596;0.315482;0.320437;-0.108750;-0.809814;0.078125;0.079102;0.046443;-0.455675;-0.002336;-0.888931
29157;13.724975;0.088237;9.515306;0.315910;0.438889;-0.177158;-0.814941;0.075928;0.085693;0.046380;-0.452301;-0.005175;-0.890644
29158;12.610432;0.216838;8.721640;-0.092741;0.590113;-0.094658;-0.817871;0.066895;0.076904;0.045192;-0.447970;-0.004503;-0.892894
29159;10.238427;-0.003720;7.483884;-0.136672;0.603186;-0.042209;-0.822021;0.061279;0.065918;0.044209;-0.443545;-0.003288;-0.895155
29160;8.846036;0.695310;5.903296;-0.326005;0.652591;0.053610;-0.815186;0.067871;0.052490;0.043243;-0.438803;-0.000287;-0.897542
29161;7.384587;1.316914;5.407639;-0.558342;0.693244;0.080955;-0.820312;0.073975;0.037842;0.041794;-0.433818;0.004469;-0.900019
29162;6.028299;1.977813;5.046149;-0.772005;0.624700;-0.042083;-0.814209;0.077148;0.035889;0.038694;-0.429395;0.010328;-0.902228
29163;5.332134;2.292010;4.405749;-0.814529;0.172385;-0.370617;-0.816406;0.061279;0.038086;0.033018;-0.428395;0.015172;-0.902861
29164;5.717921;2.375391;4.463868;-0.662048;-0.426764;-0.771474;-0.823242;0.049072;0.042236;0.024870;-0.431882;0.017311;-0.901421
29165;6.447938;2.105294;5.102573;-0.638908;-0.705427;-0.970995;-0.821289;0.044678;0.055420;0.015321;-0.437436;0.018507;-0.898928
29166;8.139408;1.511917;5.247599;-0.659165;-0.847668;-1.036174;-0.824707;0.029053;0.063721;0.005255;-0.444011;0.019573;-0.895792
29167;10.460984;0.919477;5.671037;-0.628928;-0.882288;-1.037045;-0.824707;0.015625;0.079102;-0.004689;-0.450770;0.020398;-0.892395
29168;11.592947;0.309633;6.118476;-0.581125;-0.638427;-0.806949;-0.827148;-0.003662;0.084717;-0.012802;-0.455624;0.021726;-0.889815
29169;11.823155;-0.791061;5.900292;-0.794962;-0.275168;-0.527624;-0.819580;-0.013916;0.093994;-0.019735;-0.457669;0.025671;-0.888533
29170;10.564522;-1.105242;5.464388;-0.832664;0.071797;-0.211712;-0.822998;-0.011963;0.093262;-0.024546;-0.457050;0.031038;-0.888560
29171;9.229916;-1.150072;4.869033;-0.902860;0.252216;0.096103;-0.814941;-0.017334;0.084961;-0.027387;-0.454975;0.038058;-0.889269
29172;7.828195;-0.890989;4.362279;-0.821644;0.149535;0.191973;-0.820801;-0.000488;0.086426;-0.029104;-0.453621;0.044827;-0.889591
29173;6.282430;-0.882351;4.327413;-0.684534;-0.106185;0.115291;-0.829102;-0.011719;0.083740;-0.030776;-0.454210;0.050347;-0.888939
29174;5.930144;-0.606381;4.189264;-0.473598;-0.388695;0.020597;-0.813721;-0.006592;0.091309;-0.032299;-0.456961;0.054061;-0.887255
29175;5.998516;-0.386470;4.415301;-0.354490;-0.523811;-0.014361;-0.823486;-0.012939;0.096680;-0.033468;-0.460758;0.056739;-0.885078
29176;5.927364;-0.056818;4.736979;-0.338004;-0.519854;-0.046669;-0.814941;-0.017090;0.106934;-0.034884;-0.464524;0.059211;-0.882890
29177;6.119396;-0.069035;4.690010;-0.307334;-0.480140;-0.060825;-0.821533;-0.005859;0.116211;-0.036286;-0.468009;0.061374;-0.880843
29178;6.387965;-0.112446;4.786189;-0.202468;-0.428819;-0.079871;-0.818848;-0.016357;0.114014;-0.037446;-0.471150;0.062672;-0.879026
29179;6.585840;-0.076816;4.894248;-0.140073;-0.344749;-0.084643;-0.820068;-0.014160;0.111328;-0.038427;-0.473683;0.063472;-0.877564
29180;6.645516;-0.083908;4.965965;-0.057813;-0.250358;-0.051883;-0.814697;-0.018311;0.122803;-0.038860;-0.475523;0.063763;-0.876529
29181;6.687205;-0.094516;5.014117;0.017944;-0.158321;-0.015533;-0.821289;-0.018311;0.125488;-0.038796;-0.476704;0.063609;-0.875901
29182;6.686084;-0.005849;5.118124;0.081663;-0.049382;0.017405;-0.816895;-0.021973;0.122803;-0.038327;-0.477091;0.063103;-0.875747
29183;6.558376;-0.035209;5.145469;0.151852;-0.003969;0.045196;-0.816650;-0.011475;0.116699;-0.037385;-0.477150;0.062179;-0.875822
29184;6.570992;-0.010505;5.030405;0.183039;0.033450;0.100333;-0.819336;-0.019531;0.121826;-0.035881;-0.476912;0.061211;-0.876082
29185;6.597009;0.232436;4.935173;0.232409;0.048681;0.116080;-0.819824;-0.018066;0.131104;-0.034138;-0.476571;0.059970;-0.876424
29186;7.057426;0.107991;5.406446;0.299720;0.008290;0.104469;-0.824951;-0.006836;0.124756;-0.032212;-0.476558;0.058192;-0.876623
29187;7.863289;0.015078;6.598526;0.416805;-0.007293;0.081615;-0.820557;-0.011475;0.119385;-0.029951;-0.476690;0.055464;-0.876809
29188;8.888162;-0.152122;7.037129;0.366157;-0.007691;0.111733;-0.824463;-0.003906;0.123779;-0.027668;-0.476785;0.053238;-0.876970
29189;9.466043;-0.561452;7.045748;0.335535;-0.112629;0.151700;-0.824219;0.003662;0.132080;-0.025168;-0.477624;0.051404;-0.876698
29190;9.431325;-0.574779;7.042896;0.303959;-0.029186;0.234350;-0.817627;-0.000977;0.124268;-0.022212;-0.477815;0.050085;-0.876750
29191;9.081888;-0.275278;6.887296;0.242355;0.268152;0.382388;-0.823730;0.001953;0.119385;-0.018542;-0.475744;0.049773;-0.877978
29192;9.680683;-0.050520;6.404535;0.275864;0.481090;0.499066;-0.825684;0.007080;0.106445;-0.014004;-0.472054;0.049669;-0.880058
29193;12.865941;-1.045587;7.637984;0.644171;0.169514;0.504975;-0.819336;0.018799;0.111816;-0.007852;-0.470659;0.046941;-0.881031
29194;13.813831;-1.505107;8.860789;0.583302;0.082107;0.588474;-0.829346;0.025146;0.112549;-0.001254;-0.469862;0.044945;-0.881594
29195;11.315798;-1.692430;6.577086;0.071541;0.535906;0.834585;-0.827881;0.044434;0.100098;0.004928;-0.465605;0.047694;-0.883693
29196;9.122307;-1.785519;5.287704;0.186318;0.481471;0.818351;-0.832764;0.052002;0.086670;0.011498;-0.461717;0.049512;-0.885570
29197;7.980611;-0.830520;3.741492;0.040259;0.548247;0.707296;-0.823730;0.061279;0.094482;0.016626;-0.457355;0.052023;-0.887606
29198;7.352063;-1.104503;3.360117;0.000692;0.503055;0.665555;-0.823242;0.072266;0.073730;0.021346;-0.453355;0.054601;-0.889400
29199;7.290344;-1.502920;2.603715;0.077259;0.339421;0.662594;-0.822510;0.075928;0.080322;0.026420;-0.450517;0.056592;-0.890581
29200;6.742064;-1.945682;2.335567;0.283893;0.059586;0.636095;-0.821289;0.093018;0.072754;0.032184;-0.449723;0.056877;-0.890774
29201;6.849723;-2.126877;2.228891;0.622044;-0.392384;0.566758;-0.819824;0.093262;0.076416;0.038944;-0.452199;0.054260;-0.889413
29202;7.720771;-1.637399;2.979108;0.996050;-0.706796;0.455027;-0.826904;0.106201;0.089111;0.046392;-0.456892;0.048370;-0.886994
29203;9.424994;-0.954670;4.321059;1.305101;-0.875088;0.319732;-0.824707;0.109863;0.096680;0.054066;-0.462703;0.039604;-0.883977
29204;11.131499;0.218907;5.940724;1.414320;-0.709098;0.251162;-0.815186;0.107178;0.093750;0.061586;-0.467179;0.029844;-0.881510
29205;11.663519;0.588320;6.250298;1.090078;-0.292115;0.306719;-0.820557;0.122803;0.102783;0.068145;-0.468667;0.022902;-0.880445
29206;11.000850;0.238895;5.460786;0.676687;0.078212;0.345193;-0.813477;0.130371;0.095947;0.073311;-0.467648;0.019325;-0.880657
29207;10.454852;-0.506149;5.203146;0.315209;0.333778;0.327609;-0.818359;0.134277;0.087891;0.076928;-0.464961;0.018467;-0.881789
29208;9.222172;-0.811209;5.308058;0.103443;0.575876;0.241126;-0.822510;0.137695;0.079590;0.079033;-0.460627;0.018997;-0.883864
29209;7.914665;-1.030644;5.159602;0.251430;0.527080;0.085598;-0.811523;0.129395;0.076904;0.080556;-0.456569;0.017812;-0.885855
29210;7.314749;-1.189848;4.733977;0.472065;0.431536;0.005809;-0.820068;0.134277;0.079102;0.082343;-0.453076;0.014628;-0.887540
29211;6.558721;-1.164510;4.698641;0.620577;0.302038;-0.027796;-0.818115;0.133301;0.059082;0.084445;-0.450442;0.010126;-0.888745
29212;6.137623;-1.219827;4.635739;0.640371;0.110344;-0.033664;-0.819336;0.133301;0.061035;0.086602;-0.449181;0.005326;-0.889218
29213;6.369682;-1.312068;4.702493;0.674517;0.038324;0.011564;-0.817139;0.129395;0.058594;0.089219;-0.448421;0.000388;-0.889359
29214;6.705331;-1.429511;4.755125;0.675904;0.021883;0.080924;-0.824463;0.131836;0.050781;0.092346;-0.447766;-0.004307;-0.889359
29215;6.902240;-1.449594;4.885846;0.646690;0.077478;0.123674;-0.823975;0.139404;0.055176;0.095669;-0.446702;-0.008575;-0.889512
29216;6.916767;-1.742464;4.717955;0.563875;0.160845;0.159220;-0.815918;0.150635;0.052490;0.098967;-0.445087;-0.012042;-0.889920
29217;6.781301;-1.652506;4.670945;0.510537;0.181468;0.163129;-0.822754;0.139893;0.051025;0.102135;-0.443357;-0.015104;-0.890379
29218;6.557333;-1.514826;4.575557;0.444457;0.187263;0.144614;-0.821777;0.149902;0.043213;0.104871;-0.441628;-0.017708;-0.890872
29219;6.396575;-1.441391;4.250067;0.413997;0.183010;0.123695;-0.823730;0.140625;0.035156;0.107361;-0.439945;-0.020178;-0.891356
29220;6.417624;-1.485302;4.211753;0.434994;0.161334;0.093563;-0.812988;0.145752;0.042725;0.109674;-0.438386;-0.022919;-0.891776
29221;6.690001;-1.580494;4.311960;0.444761;0.172626;0.098634;-0.820557;0.145752;0.033447;0.112084;-0.436741;-0.025713;-0.892207
29222;7.490250;-1.786447;4.824252;0.504991;0.164697;0.146691;-0.820068;0.150146;0.026123;0.115055;-0.435095;-0.028780;-0.892539
29223;8.402489;-1.742717;5.570258;0.521956;0.177749;0.218432;-0.819580;0.151855;0.015625;0.118629;-0.433341;-0.031702;-0.892826
29224;8.713439;-2.070715;5.779669;0.519801;0.288802;0.339520;-0.811768;0.163330;0.012207;0.123123;-0.430777;-0.034062;-0.893371
29225;8.568676;-1.780237;5.719152;0.522913;0.368987;0.375155;-0.810791;0.160156;0.011230;0.127927;-0.427612;-0.036235;-0.894130
29226;9.093523;-1.996721;5.466383;0.417252;0.487771;0.474515;-0.817139;0.163086;0.003662;0.133110;-0.423692;-0.037130;-0.895203
29227;9.876761;-1.256421;6.053807;0.473789;0.403962;0.413788;-0.811768;0.176025;0.002441;0.137996;-0.420299;-0.038747;-0.895993
29228;9.649862;-0.359406;6.961720;0.323589;0.399630;0.316729;-0.815430;0.175537;-0.005615;0.141638;-0.417072;-0.039585;-0.896896
29229;8.576092;0.825586;5.257103;0.167652;0.495545;0.259959;-0.807861;0.183838;-0.016357;0.144336;-0.413282;-0.039342;-0.898230
29230;8.456349;1.942563;6.224037;0.592779;0.148484;0.058566;-0.807373;0.186523;-0.023193;0.146887;-0.411499;-0.043399;-0.898448
29231;8.182749;2.731928;6.254340;0.615754;0.089177;0.037207;-0.809814;0.183838;-0.021973;0.149339;-0.410113;-0.047780;-0.898456
29232;8.192380;2.030232;4.816709;0.839845;-0.005697;0.149555;-0.813721;0.174072;-0.036621;0.153351;-0.409191;-0.053575;-0.897873
29233;8.984955;1.419772;5.321882;1.391190;-0.307287;0.173525;-0.817383;0.190186;-0.023193;0.159271;-0.409783;-0.063815;-0.895901
29234;10.227424;1.005165;6.004658;1.544820;-0.518117;0.151341;-0.806641;0.184814;-0.025391;0.165419;-0.411679;-0.075532;-0.893002
29235;11.163471;0.359939;6.349975;1.798878;-0.656737;0.135778;-0.807129;0.182617;-0.019043;0.172203;-0.414151;-0.089379;-0.889290
29236;11.155132;0.073959;5.977359;1.987705;-0.649679;0.261916;-0.810059;0.190918;-0.023438;0.180526;-0.416279;-0.104158;-0.885027
29237;11.324616;-0.699242;4.905776;1.920795;-0.427922;0.611494;-0.805664;0.190186;-0.009033;0.191339;-0.417043;-0.116866;-0.880799
29238;11.176037;-1.292349;4.316157;1.700804;-0.075362;0.993117;-0.795166;0.202393;-0.027344;0.204467;-0.415843;-0.126035;-0.877145
29239;10.654477;-1.447409;4.648647;1.604660;0.211588;1.304398;-0.798828;0.215332;-0.039307;0.219786;-0.412901;-0.132905;-0.873809
29240;9.547145;-1.233617;4.768201;1.648764;0.266886;1.492596;-0.793457;0.226318;-0.044434;0.236611;-0.409548;-0.139308;-0.869988
29241;8.397461;-0.892841;4.755327;1.800208;0.120892;1.578767;-0.787842;0.262695;-0.056152;0.254312;-0.406912;-0.146747;-0.864993
29242;7.890749;-0.544840;4.606154;2.065080;-0.103055;1.609559;-0.779297;0.276123;-0.063477;0.272770;-0.405189;-0.156380;-0.858466
29243;7.593040;-0.398301;4.764068;2.292462;-0.217871;1.636641;-0.768311;0.299805;-0.065918;0.291893;-0.403599;-0.167732;-0.850748
29244;8.104170;-0.418785;4.818657;2.414559;-0.262715;1.668163;-0.758057;0.303223;-0.075928;0.311421;-0.401848;-0.179843;-0.842135
29245;8.429061;-0.470108;4.157506;2.549876;-0.248998;1.737867;-0.759521;0.314209;-0.088623;0.331699;-0.399494;-0.192536;-0.832652
29246;8.618994;-0.492945;4.400005;2.637482;-0.271182;1.772421;-0.752441;0.330566;-0.093506;0.352243;-0.396831;-0.205656;-0.822287
29247;8.575125;-0.562068;4.604989;2.634052;-0.203325;1.865091;-0.739502;0.363525;-0.111084;0.373283;-0.393594;-0.218085;-0.811284
29248;8.338055;-0.531058;4.482623;2.623149;-0.177228;1.944111;-0.724854;0.375732;-0.124512;0.394605;-0.390068;-0.229932;-0.799541
29249;7.936322;-0.519049;4.245488;2.688611;-0.249878;1.921095;-0.705811;0.391113;-0.145508;0.415546;-0.386472;-0.242358;-0.786907
29250;7.844340;-0.406806;4.132950;2.825939;-0.365590;1.890333;-0.710693;0.407715;-0.161133;0.436170;-0.382790;-0.255992;-0.773108
29251;7.845727;0.163954;3.936188;2.897368;-0.382180;1.847305;-0.692139;0.406006;-0.172852;0.456346;-0.378552;-0.270073;-0.758622
29252;7.880357;0.511663;3.902506;2.970109;-0.434203;1.785580;-0.677734;0.420410;-0.192383;0.475862;-0.373911;-0.284779;-0.743402
29253;7.944229;0.722891;3.984728;3.006372;-0.462018;1.723062;-0.676270;0.425781;-0.208252;0.494637;-0.368833;-0.299769;-0.727623
29254;8.131352;0.972098;4.168605;2.991924;-0.460475;1.642386;-0.659180;0.437744;-0.211670;0.512469;-0.363295;-0.314662;-0.711604
29255;8.380124;1.232341;4.564451;2.903596;-0.421367;1.575203;-0.649902;0.436035;-0.236572;0.529329;-0.357437;-0.328815;-0.695651
29256;8.716400;1.357809;4.992591;2.724442;-0.350420;1.528693;-0.637207;0.441650;-0.255127;0.545197;-0.351567;-0.341515;-0.680095
29257;8.921437;1.420809;5.085031;2.498049;-0.220223;1.502001;-0.626221;0.447021;-0.270752;0.560271;-0.345687;-0.352198;-0.665247
29258;8.887490;1.382386;4.920075;2.284680;-0.085469;1.470319;-0.615479;0.448486;-0.294189;0.574640;-0.339771;-0.360963;-0.651191
29259;8.606978;1.265482;4.682507;2.184801;0.034190;1.422950;-0.607666;0.446289;-0.301025;0.588546;-0.333373;-0.368568;-0.637678
29260;8.214961;1.075852;4.730668;2.160223;0.102189;1.374090;-0.593994;0.453125;-0.318604;0.602059;-0.326430;-0.375672;-0.624371
29261;7.894434;0.952749;4.860386;2.115869;0.159028;1.347582;-0.589111;0.451904;-0.339111;0.615222;-0.319184;-0.382160;-0.611210
29262;7.556328;0.753924;4.847828;2.116219;0.223483;1.340806;-0.577148;0.447998;-0.357666;0.628285;-0.311446;-0.388167;-0.597985
29263;7.239448;0.677021;4.644883;2.123161;0.302590;1.333530;-0.557861;0.458984;-0.379395;0.641308;-0.303116;-0.393639;-0.584716
29264;7.457222;0.462685;4.150127;2.097350;0.298288;1.348073;-0.549072;0.442139;-0.397461;0.654040;-0.294860;-0.398794;-0.571186
29265;8.783408;-0.350705;5.330846;2.340922;0.009370;1.342413;-0.537354;0.439209;-0.421875;0.666073;-0.286492;-0.406506;-0.555897
29266;10.639703;-0.873467;7.490933;2.686473;-0.391748;1.323526;-0.535156;0.440430;-0.427734;0.677106;-0.277837;-0.417856;-0.538266
29267;10.702705;-0.693275;6.365454;2.419816;-0.137631;1.500865;-0.531982;0.420166;-0.439209;0.688794;-0.269998;-0.425910;-0.520830
29268;8.698908;-1.272774;3.337608;2.075202;0.277972;1.696556;-0.506592;0.435547;-0.458008;0.701663;-0.262883;-0.429413;-0.504148
29269;8.182602;-1.985457;1.943089;2.154348;0.122336;1.752741;-0.484375;0.417969;-0.477539;0.714020;-0.256023;-0.433810;-0.486246
29270;8.841602;-2.174101;2.210718;2.043842;0.140138;1.880024;-0.479736;0.419922;-0.494873;0.726339;-0.250072;-0.437151;-0.467755
29271;9.358740;-2.522755;2.563431;1.986378;-0.051391;1.938372;-0.459717;0.416504;-0.507812;0.737678;-0.245294;-0.441071;-0.448462
29272;9.617089;-2.820936;3.241078;2.316873;-0.418813;1.844075;-0.455566;0.405762;-0.522705;0.747564;-0.239369;-0.448422;-0.427514
29273;9.627045;-2.317057;4.267582;2.621135;-0.570476;1.642651;-0.451904;0.391113;-0.539062;0.756283;-0.231180;-0.457909;-0.406092
29274;9.740864;-1.762454;4.954309;2.649018;-0.462354;1.546185;-0.449463;0.382324;-0.548096;0.764629;-0.221923;-0.466682;-0.385099
29275;10.130587;-1.344432;5.191827;2.667136;-0.353640;1.457192;-0.443115;0.361572;-0.564941;0.772640;-0.211709;-0.474673;-0.364544
29276;10.460491;-1.274672;5.445170;2.510537;-0.172611;1.420733;-0.433105;0.347412;-0.573242;0.780504;-0.201677;-0.480791;-0.344935
29277;9.968612;-1.558260;4.972604;2.287656;-0.049417;1.394335;-0.420410;0.330078;-0.591797;0.787989;-0.192525;-0.485247;-0.326409
29278;9.263605;-1.897618;4.468428;2.217807;0.036777;1.370175;-0.407471;0.316406;-0.605713;0.795261;-0.183405;-0.488747;-0.308299
29279;8.913636;-2.126289;4.267148;2.150620;0.011444;1.373306;-0.407227;0.309814;-0.608154;0.801967;-0.174723;-0.492008;-0.290256
29280;8.228451;-2.100480;4.072166;2.117348;-0.049070;1.325646;-0.405029;0.289551;-0.621094;0.807905;-0.166137;-0.495440;-0.272447
29281;7.730612;-2.036465;3.941268;2.123143;-0.135760;1.287886;-0.401611;0.273926;-0.631836;0.813057;-0.157480;-0.499304;-0.254626
29282;7.483082;-2.046624;3.858327;2.162724;-0.212614;1.243188;-0.396484;0.260986;-0.641357;0.817493;-0.148462;-0.503611;-0.236727
29283;7.348238;-2.011933;4.087940;2.154616;-0.235366;1.166527;-0.398682;0.239258;-0.639160;0.821322;-0.139159;-0.507931;-0.219251
29284;7.396278;-1.845835;4.088176;2.080234;-0.199916;1.086732;-0.394775;0.217773;-0.657959;0.824736;-0.129904;-0.511756;-0.202585
29285;7.461173;-1.639015;4.066631;1.965762;-0.190292;0.971568;-0.398926;0.208984;-0.664062;0.827574;-0.120881;-0.515258;-0.187132
29286;7.400124;-1.467596;4.394441;1.796043;-0.174412;0.840466;-0.388428;0.189941;-0.664795;0.829851;-0.112402;-0.518355;-0.173268
29287;7.263618;-1.328810;4.464423;1.616492;-0.165664;0.711494;-0.385986;0.175781;-0.666992;0.831605;-0.104566;-0.521120;-0.161035
29288;7.108948;-1.298794;4.615499;1.472145;-0.192984;0.564702;-0.391846;0.164795;-0.673096;0.832754;-0.097108;-0.523903;-0.150389
29289;7.091463;-1.448210;4.625614;1.369777;-0.185476;0.424321;-0.391602;0.151123;-0.688477;0.833543;-0.089720;-0.526531;-0.141145
29290;7.351076;-1.556461;4.423985;1.259893;-0.163809;0.297651;-0.397461;0.137939;-0.680176;0.834086;-0.082502;-0.528901;-0.133259
29291;7.571322;-1.639808;4.321249;1.159479;-0.147151;0.198605;-0.390137;0.124756;-0.679443;0.834433;-0.075517;-0.531052;-0.126499
29292;7.673777;-1.699950;4.323900;1.066795;-0.135804;0.142284;-0.400391;0.108643;-0.687500;0.834639;-0.068907;-0.533011;-0.120534
29293;7.731281;-1.788659;4.487560;1.021471;-0.127967;0.112913;-0.403320;0.093262;-0.684082;0.834759;-0.062468;-0.534843;-0.114967
29294;7.923068;-1.865161;4.688039;0.994575;-0.087961;0.100699;-0.398438;0.090576;-0.675049;0.834973;-0.056118;-0.536336;-0.109614
29295;8.110417;-1.953943;4.754300;0.939355;-0.002373;0.112832;-0.392578;0.076416;-0.687012;0.835499;-0.050124;-0.537139;-0.104454
29296;8.365812;-2.057987;5.041194;0.933672;0.089388;0.125785;-0.394531;0.070557;-0.687256;0.836394;-0.044144;-0.537256;-0.099257
29297;8.911167;-1.792706;5.698330;0.947086;0.129390;0.084011;-0.393311;0.060303;-0.685547;0.837387;-0.037848;-0.537084;-0.094295
29298;9.387900;-1.424406;6.074277;0.899832;0.229098;0.037890;-0.384521;0.048584;-0.696533;0.838723;-0.031594;-0.536158;-0.089890
29299;9.776884;-1.243160;6.202324;0.873329;0.270094;0.008238;-0.385254;0.037354;-0.702881;0.840165;-0.025361;-0.534898;-0.085813
29300;11.078788;-0.556291;6.444391;0.911894;0.331012;-0.032624;-0.381836;0.020752;-0.699707;0.841806;-0.018630;-0.533212;-0.081856
29301;13.881342;0.778775;8.384023;1.437312;0.103249;-0.211701;-0.378174;0.007080;-0.701660;0.842306;-0.007572;-0.533449;-0.076776
29302;13.980099;0.174993;7.829860;0.814051;0.179623;0.142121;-0.377686;0.004639;-0.699219;0.843252;-0.002411;-0.532672;-0.071982
29303;11.798644;-1.346852;3.647704;0.584247;0.449399;0.536874;-0.371094;-0.006592;-0.708008;0.845580;-0.000456;-0.529822;-0.065436
29304;11.757937;-0.472351;4.534395;0.679743;0.389504;0.720319;-0.365723;-0.013672;-0.705811;0.847686;0.001330;-0.527408;-0.057165
29305;10.896322;0.726583;5.061254;0.204184;0.634851;0.848311;-0.360596;-0.011230;-0.708252;0.850865;-0.000690;-0.522992;-0.050072
29306;8.346469;1.476613;4.398505;-0.196250;0.733427;0.699693;-0.350342;-0.001709;-0.710693;0.854341;-0.004862;-0.517670;-0.045775
29307;6.421017;2.039190;2.686583;-0.200079;0.479983;0.393867;-0.346924;-0.002441;-0.711914;0.856561;-0.007840;-0.514136;-0.043664
29308;5.689412;2.007212;2.429075;-0.055484;0.192585;0.169953;-0.345215;0.010986;-0.716553;0.857461;-0.008930;-0.512711;-0.042518
29309;6.231855;1.852771;3.493444;0.205615;-0.102685;-0.063576;-0.344238;-0.003662;-0.718994;0.857032;-0.007262;-0.513504;-0.041909
29310;7.629703;1.504475;4.747575;0.411593;-0.254718;-0.227994;-0.347656;-0.007080;-0.708252;0.855899;-0.003470;-0.515457;-0.041589
29311;9.499571;0.836972;5.249622;0.525510;-0.366704;-0.287898;-0.351318;-0.015137;-0.710938;0.854244;0.001355;-0.518234;-0.041208
29312;10.632064;0.327005;5.596562;0.555066;-0.421760;-0.311930;-0.355469;-0.021729;-0.717041;0.852313;0.006476;-0.521392;-0.040872
29313;10.214991;0.224825;5.388253;0.377535;-0.265861;-0.237903;-0.352783;-0.022705;-0.693359;0.851070;0.010068;-0.523370;-0.040773
29314;9.877934;0.286664;5.448852;0.109867;0.011965;-0.061746;-0.354492;-0.026611;-0.703857;0.851113;0.011088;-0.523295;-0.040569
29315;9.731044;0.521318;5.321744;-0.191626;0.240318;0.086157;-0.357178;-0.021973;-0.708740;0.852227;0.009403;-0.521509;-0.040609
29316;8.323145;0.573615;5.070013;-0.385656;0.339769;0.126648;-0.352539;-0.026123;-0.705811;0.853790;0.006196;-0.518949;-0.041198
29317;6.724425;0.607583;4.579032;-0.328105;0.228715;0.051130;-0.343018;-0.019287;-0.713867;0.854830;0.003687;-0.517186;-0.042081
29318;5.873605;0.175684;4.419415;-0.187959;0.040840;-0.025847;-0.342773;-0.017822;-0.713623;0.855024;0.002441;-0.516804;-0.042916
29319;5.597097;-0.063462;4.464063;-0.061783;-0.076871;-0.071481;-0.351074;-0.009277;-0.707275;0.854691;0.002249;-0.517304;-0.043537
29320;5.584633;0.125228;4.240386;-0.042748;-0.192163;-0.096792;-0.344482;-0.015625;-0.710693;0.853850;0.002259;-0.518630;-0.044258
29321;5.783581;-0.140194;4.108345;-0.006380;-0.297062;-0.084524;-0.355713;-0.017578;-0.708984;0.852557;0.002439;-0.520711;-0.044736
29322;5.999936;-0.162852;4.174764;-0.011968;-0.320719;-0.100697;-0.359863;-0.015381;-0.708984;0.851149;0.002640;-0.522955;-0.045355
29323;6.193205;-0.099679;4.298175;0.049641;-0.338362;-0.078233;-0.356445;-0.010742;-0.698730;0.849665;0.003174;-0.525342;-0.045546
29324;6.456053;0.029240;4.418220;0.122506;-0.302020;-0.036383;-0.359863;-0.015381;-0.705566;0.848349;0.004055;-0.527495;-0.045120
29325;6.724733;0.127029;4.357296;0.168416;-0.242031;0.029677;-0.366699;-0.020020;-0.703369;0.847315;0.004995;-0.529239;-0.044023
29326;6.921872;0.298330;4.455941;0.201186;-0.178002;0.073129;-0.373535;-0.022217;-0.693848;0.846573;0.005999;-0.530541;-0.042473
29327;6.864302;0.448519;4.574532;0.188769;-0.108313;0.121807;-0.366699;-0.029785;-0.699463;0.846152;0.006725;-0.531347;-0.040632
29328;6.917359;0.672671;4.632609;0.173777;-0.053081;0.144693;-0.370361;-0.019531;-0.705566;0.845984;0.007264;-0.531753;-0.038693
29329;7.542345;0.891508;4.974210;0.270259;-0.050838;0.119155;-0.358154;-0.024658;-0.697021;0.845807;0.008592;-0.532169;-0.036511
29330;8.705599;0.900083;6.521581;0.375675;-0.085525;0.043129;-0.370850;-0.032471;-0.703857;0.845440;0.010996;-0.532848;-0.034400
29331;9.854534;0.713445;7.278734;0.330831;-0.086083;0.037264;-0.369629;-0.036377;-0.691406;0.845063;0.013111;-0.533516;-0.032531
29332;10.533248;0.461588;7.383014;0.277477;-0.046270;0.106704;-0.367676;-0.045898;-0.695801;0.844882;0.014551;-0.533890;-0.030409
29333;11.081611;0.227001;7.980614;0.233081;0.100466;0.230720;-0.371826;-0.043701;-0.699707;0.845388;0.015167;-0.533224;-0.027592
29334;12.819625;-0.003209;8.335017;0.141186;0.313754;0.415462;-0.366699;-0.042236;-0.696777;0.846882;0.014358;-0.531051;-0.023857
29335;15.889635;-0.265780;9.210161;0.080311;0.225052;0.497743;-0.360107;-0.044678;-0.694092;0.847990;0.012739;-0.529488;-0.019819
29336;15.023871;0.329763;8.294719;-0.499331;0.393329;0.537412;-0.356201;-0.022949;-0.704590;0.849879;0.006878;-0.526623;-0.018037
29337;10.630310;0.162599;5.740485;-0.918074;0.638411;0.495948;-0.352783;-0.018799;-0.706055;0.852797;-0.001739;-0.521917;-0.018375
29338;8.818938;0.480350;3.930521;-0.539427;0.563685;0.355673;-0.344727;-0.009521;-0.707520;0.855303;-0.007058;-0.517765;-0.018055
29339;8.793988;0.319431;3.138585;-0.421400;0.754734;0.372232;-0.333984;-0.007568;-0.712402;0.858595;-0.011582;-0.512238;-0.017121
29340;9.113137;-0.809734;2.565826;-0.276739;0.824061;0.505602;-0.311768;-0.008057;-0.713623;0.862157;-0.015629;-0.506189;-0.014621
29341;9.040204;-1.971099;2.267787;-0.042237;0.619896;0.607438;-0.306885;0.015625;-0.722656;0.864847;-0.018447;-0.501590;-0.010371
29342;8.290186;-2.368835;1.399890;0.287384;0.347888;0.662890;-0.311768;0.005615;-0.715576;0.866409;-0.019152;-0.498949;-0.004304
29343;7.701800;-1.883013;1.355738;0.798048;0.028117;0.597396;-0.311035;0.000244;-0.715576;0.866667;-0.015900;-0.498621;0.003475
29344;7.947078;-1.142434;2.353550;1.088149;-0.353281;0.508740;-0.309570;-0.013428;-0.715820;0.865304;-0.010172;-0.501003;0.011871
29345;9.236752;-0.532705;3.733744;1.203643;-0.535305;0.481790;-0.327881;-0.020264;-0.717529;0.863087;-0.003476;-0.504624;0.020570
29346;10.438370;-0.165539;5.379172;1.271321;-0.454034;0.455519;-0.321777;-0.031494;-0.707520;0.861096;0.003802;-0.507581;0.029355
29347;10.487462;0.165476;5.766318;0.994416;-0.186489;0.447221;-0.329346;-0.052246;-0.708008;0.860152;0.009066;-0.508620;0.036913
29348;9.318994;-0.039978;4.803224;0.595123;0.125507;0.524011;-0.321533;-0.048828;-0.708252;0.860478;0.011053;-0.507520;0.043351
29349;8.371673;-0.313536;4.531074;0.483579;0.256904;0.489522;-0.323486;-0.052246;-0.713135;0.861348;0.012332;-0.505489;0.049074
29350;7.690878;-0.159225;4.542634;0.476877;0.413522;0.458621;-0.313721;-0.059326;-0.716064;0.862854;0.013630;-0.502315;0.054560
29351;6.815408;-0.330524;4.649767;0.560695;0.474604;0.391251;-0.305908;-0.065186;-0.715820;0.864599;0.015788;-0.498628;0.059918
29352;5.973429;-0.616754;4.381324;0.630797;0.346069;0.304048;-0.303467;-0.074463;-0.714355;0.865803;0.018876;-0.495796;0.064917
29353;5.518906;-0.798337;4.071032;0.710924;0.086760;0.216353;-0.303955;-0.083008;-0.714355;0.865935;0.023044;-0.494758;0.069571
29354;5.441835;-0.824576;4.096947;0.764297;-0.096444;0.151463;-0.302734;-0.091797;-0.715332;0.865303;0.027970;-0.494976;0.073937
29355;5.798678;-0.776217;4.271836;0.742660;-0.182821;0.112156;-0.312988;-0.106689;-0.709717;0.864309;0.032955;-0.495796;0.077907
29356;6.078198;-0.795953;4.491014;0.650474;-0.194936;0.119138;-0.314209;-0.102539;-0.701904;0.863253;0.037255;-0.496747;0.081540
29357;6.346136;-0.980232;4.625395;0.479511;-0.151411;0.089609;-0.307617;-0.113281;-0.701416;0.862429;0.040414;-0.497477;0.084263
29358;6.152363;-0.840624;4.670963;0.310056;-0.019717;0.092026;-0.315186;-0.113281;-0.706299;0.862196;0.042256;-0.497369;0.086347
29359;6.120426;-0.820850;4.518311;0.177554;-0.001004;0.078455;-0.309814;-0.114990;-0.711182;0.862093;0.043187;-0.497216;0.087789
29360;6.280987;-0.819035;4.630986;0.103076;-0.032617;-0.014851;-0.315674;-0.117432;-0.705322;0.861954;0.043993;-0.497306;0.088243
29361;6.233964;-0.447931;4.216448;-0.057565;-0.001557;-0.097732;-0.321777;-0.120361;-0.698486;0.862061;0.043966;-0.497263;0.087448
29362;6.311073;-0.587078;3.724861;-0.087167;-0.029577;-0.189691;-0.319580;-0.114502;-0.702637;0.862128;0.044129;-0.497409;0.085859
29363;7.108939;-0.915033;4.640600;0.064552;-0.157174;-0.281222;-0.315918;-0.118896;-0.700928;0.861675;0.045849;-0.498323;0.084193
29364;8.451370;-1.167128;5.712071;0.155919;-0.250710;-0.342475;-0.315186;-0.127930;-0.699707;0.860833;0.048548;-0.499814;0.082431
29365;9.672682;-1.493730;6.562989;0.266309;-0.283836;-0.350463;-0.317383;-0.128662;-0.694824;0.859801;0.052095;-0.501455;0.081060
29366;10.699849;-1.776304;7.192777;0.413117;-0.197919;-0.317282;-0.320068;-0.144287;-0.701660;0.859026;0.056493;-0.502386;0.080576
29367;11.757146;-1.854015;7.711047;0.417448;0.078743;-0.215712;-0.318604;-0.139893;-0.700684;0.859323;0.060312;-0.501368;0.080971
29368;12.664315;-1.520228;7.547692;0.234013;0.436058;-0.087995;-0.311768;-0.150391;-0.690430;0.861106;0.062035;-0.497971;0.081692
29369;13.323197;-0.616031;8.219402;0.219865;0.593744;-0.103296;-0.305176;-0.150879;-0.701904;0.863540;0.063615;-0.493431;0.082331
29370;13.410685;0.673130;8.956177;0.114693;0.630978;-0.150334;-0.291992;-0.149658;-0.709229;0.866190;0.064600;-0.488654;0.082214
29371;12.027746;1.568488;7.264891;-0.176316;0.585892;-0.133551;-0.286865;-0.147949;-0.707275;0.868778;0.063443;-0.484394;0.081005
29372;9.948596;1.199476;5.118642;-0.216391;0.526814;-0.060543;-0.279785;-0.148193;-0.707031;0.871076;0.061740;-0.480618;0.080127
29373;8.084107;1.499712;3.521710;-0.477682;0.597641;0.099015;-0.276855;-0.150391;-0.710449;0.873657;0.057453;-0.476571;0.079392
29374;7.577561;2.526335;3.117927;-0.670419;0.667483;0.125279;-0.266602;-0.136963;-0.713135;0.876542;0.051610;-0.472132;0.078109
29375;7.502168;3.576517;4.494133;-0.614176;0.423246;-0.127935;-0.257568;-0.132080;-0.718506;0.878562;0.047326;-0.469309;0.075079
29376;7.675961;3.258289;6.035094;-0.538637;-0.004067;-0.501941;-0.263916;-0.124023;-0.715576;0.879083;0.045326;-0.469403;0.069427
29377;7.180716;2.598547;4.584524;-0.678763;-0.108046;-0.640369;-0.260010;-0.116699;-0.711426;0.879287;0.042899;-0.470266;0.062161
29378;8.280374;1.231859;4.014253;-0.340979;-0.369895;-0.691095;-0.258057;-0.118652;-0.711182;0.878324;0.043279;-0.472828;0.055745
29379;10.596868;0.398301;6.020562;-0.065541;-0.550853;-0.739696;-0.278320;-0.118652;-0.710693;0.876524;0.045950;-0.476545;0.049986
29380;11.276610;-0.286932;6.054353;-0.459305;-0.198720;-0.511490;-0.274414;-0.106201;-0.716797;0.876137;0.044688;-0.477922;0.044461
29381;9.890485;-0.828613;4.362952;-0.620440;0.057598;-0.221429;-0.267334;-0.108154;-0.714844;0.876697;0.040995;-0.477579;0.040505
29382;8.823615;-0.915186;4.474617;-0.678804;0.067754;-0.063600;-0.270508;-0.104004;-0.720459;0.877234;0.036247;-0.477223;0.037479
29383;7.889866;-0.408290;4.539420;-0.816808;0.088216;0.108039;-0.263916;-0.087891;-0.720215;0.877804;0.029798;-0.476797;0.035165
29384;6.615967;0.112245;4.312565;-0.852861;0.021940;0.160791;-0.264893;-0.083252;-0.710205;0.878061;0.022890;-0.476855;0.033075
29385;5.854106;0.178897;4.180915;-0.738794;-0.206293;0.054285;-0.272217;-0.066895;-0.713379;0.877376;0.017305;-0.478513;0.030616
29386;5.257349;-0.152210;4.215187;-0.652613;-0.337893;-0.010105;-0.277344;-0.059082;-0.720703;0.876136;0.012636;-0.481084;0.028007
29387;5.118604;-0.043308;3.988837;-0.535133;-0.367480;-0.106147;-0.285889;-0.054199;-0.708008;0.874759;0.009218;-0.483816;0.025164
29388;5.206177;-0.073660;3.709218;-0.466543;-0.366393;-0.146905;-0.288574;-0.053711;-0.711670;0.873365;0.006465;-0.486512;0.022302
29389;5.293478;-0.241862;3.774503;-0.355544;-0.383255;-0.159612;-0.284912;-0.048828;-0.712646;0.871881;0.004576;-0.489296;0.019796
29390;5.500887;-0.248803;3.934694;-0.272442;-0.364150;-0.167993;-0.286377;-0.041504;-0.701416;0.870458;0.003320;-0.491917;0.017567
29391;5.798581;-0.338981;4.291122;-0.178167;-0.358166;-0.146295;-0.302002;-0.038574;-0.696533;0.869042;0.002658;-0.494477;0.015881
29392;6.215099;-0.255451;4.649065;-0.061143;-0.326416;-0.128168;-0.306885;-0.045410;-0.708496;0.867742;0.002765;-0.496787;0.014808
29393;6.690761;-0.031287;4.871748;0.009072;-0.283213;-0.103782;-0.301270;-0.041748;-0.701660;0.866612;0.003275;-0.498770;0.014205
29394;6.861216;0.173141;4.913615;0.088243;-0.212485;-0.105526;-0.312256;-0.037842;-0.704590;0.865770;0.004356;-0.500229;0.013918
29395;7.026288;0.217820;4.909615;0.059368;-0.160541;-0.089301;-0.309570;-0.043945;-0.702881;0.865141;0.005151;-0.501317;0.013625
29396;7.477297;0.483636;5.110102;0.149527;-0.162268;-0.095538;-0.312256;-0.052734;-0.701416;0.864500;0.006629;-0.502402;0.013667
29397;8.604470;0.618796;6.736523;0.353243;-0.194325;-0.157425;-0.316162;-0.051514;-0.700439;0.863714;0.009840;-0.503688;0.014115
29398;9.995122;0.917606;7.993053;0.387715;-0.156492;-0.172313;-0.321533;-0.056641;-0.700684;0.863076;0.013351;-0.504687;0.014594
29399;10.523413;0.747255;7.448925;0.103853;-0.029274;-0.044635;-0.316650;-0.065918;-0.695801;0.862983;0.014269;-0.504815;0.014808
29400;10.626292;0.310663;7.768202;0.101169;0.034634;0.082266;-0.315674;-0.065674;-0.696289;0.863144;0.014635;-0.504495;0.015938
29401;11.036475;0.396317;8.453519;0.062977;0.251298;0.240623;-0.315186;-0.058594;-0.707520;0.864196;0.014029;-0.502636;0.018067
29402;11.243195;0.434688;8.430780;-0.061815;0.566027;0.443214;-0.304688;-0.057129;-0.704590;0.866532;0.011620;-0.498537;0.021160
29403;12.883463;-0.002990;7.315927;0.024033;0.647418;0.599542;-0.301025;-0.061523;-0.702148;0.869131;0.009171;-0.493826;0.025748
29404;14.624717;-1.700056;8.957307;0.221705;0.210167;0.579581;-0.300049;-0.052246;-0.697998;0.869879;0.008337;-0.492221;0.030978
29405;11.353152;-1.042842;6.123928;-0.463633;0.543210;0.643316;-0.293457;-0.052002;-0.702148;0.871981;0.002176;-0.488361;0.033873
29406;8.448513;-1.151034;3.893051;-0.325654;0.248368;0.551564;-0.293701;-0.050781;-0.714600;0.872864;-0.002517;-0.486577;0.036666
29407;7.472073;-0.026777;2.961652;-0.323726;0.299419;0.407561;-0.287842;-0.042480;-0.715332;0.873972;-0.006628;-0.484411;0.038418
29408;7.894914;0.083715;2.349699;-0.380418;0.297581;0.345929;-0.292236;-0.026367;-0.707764;0.875065;-0.010905;-0.482268;0.039487
29409;8.344416;-0.776935;2.544531;-0.264695;0.064522;0.287430;-0.290771;-0.025635;-0.717041;0.875232;-0.014033;-0.481791;0.040607
29410;8.073089;-1.110565;1.941166;-0.175611;-0.122490;0.311776;-0.284424;-0.023926;-0.705811;0.874641;-0.016541;-0.482640;0.042289
29411;7.689229;-1.222961;1.362640;0.111094;-0.321878;0.368273;-0.283691;-0.020020;-0.705566;0.873254;-0.017112;-0.484829;0.045566
29412;8.186631;-1.077702;1.984948;0.543611;-0.490889;0.361986;-0.292725;-0.031494;-0.712402;0.871219;-0.014447;-0.488070;0.050565
29413;9.456177;-0.160911;3.882560;0.983673;-0.518800;0.310137;-0.300537;-0.043457;-0.697998;0.869082;-0.008358;-0.491304;0.056980
29414;10.611449;0.523417;5.543765;1.000041;-0.204075;0.261964;-0.302490;-0.056885;-0.698975;0.868181;-0.002100;-0.492217;0.063084
29415;10.181555;0.861639;5.924701;0.719605;0.089821;0.338707;-0.299561;-0.065674;-0.696289;0.868388;0.001662;-0.491117;0.068578
29416;8.732246;-0.033842;5.272322;0.266735;0.289300;0.307138;-0.297363;-0.060303;-0.702881;0.869409;0.002161;-0.488816;0.071986
29417;8.217740;-0.493134;5.036982;0.201416;0.296779;0.194454;-0.292725;-0.066895;-0.695068;0.870516;0.002639;-0.486491;0.074303
29418;7.801196;-0.496266;5.240738;0.137737;0.379987;0.083664;-0.296143;-0.063232;-0.709229;0.872020;0.003056;-0.483593;0.075562
29419;7.010087;-0.406952;5.139123;0.138650;0.512821;0.025595;-0.287842;-0.069336;-0.698975;0.874081;0.003626;-0.479721;0.076400
29420;6.256562;-0.686696;4.770665;0.237997;0.378884;-0.057544;-0.279053;-0.076172;-0.704102;0.875642;0.005341;-0.476749;0.077027
29421;5.898686;-0.993784;4.525207;0.354541;0.137297;-0.114354;-0.281006;-0.074951;-0.708984;0.876264;0.008287;-0.475455;0.077691
29422;5.767153;-0.906544;4.559988;0.383094;0.003807;-0.152086;-0.275879;-0.072510;-0.705078;0.876370;0.011674;-0.475109;0.078178
29423;5.796448;-0.893292;4.444981;0.386748;-0.117864;-0.182256;-0.286865;-0.088623;-0.700928;0.876003;0.015285;-0.475638;0.078445
29424;6.182723;-0.992372;4.488285;0.367608;-0.175260;-0.189239;-0.293457;-0.090332;-0.703125;0.875402;0.018826;-0.476594;0.078584
29425;6.697070;-1.229787;4.765003;0.314521;-0.178138;-0.175820;-0.284180;-0.099609;-0.704346;0.874779;0.021925;-0.477600;0.078604
29426;6.766229;-1.347274;4.783121;0.180535;-0.092742;-0.158896;-0.288574;-0.095947;-0.699463;0.874505;0.023927;-0.478067;0.078233
29427;6.610386;-1.135282;4.770288;0.043948;-0.050503;-0.183166;-0.297363;-0.100586;-0.702148;0.874438;0.024997;-0.478311;0.077147
29428;6.517999;-0.932885;4.792506;-0.063919;-0.032741;-0.233396;-0.288330;-0.103516;-0.697998;0.874493;0.025471;-0.478484;0.075271
29429;6.419348;-0.831593;4.614816;-0.144212;-0.031246;-0.294697;-0.285645;-0.095459;-0.702148;0.874606;0.025605;-0.478679;0.072632
29430;6.473291;-0.740335;4.313970;-0.193951;-0.039301;-0.344324;-0.292236;-0.101318;-0.694336;0.874721;0.025573;-0.478946;0.069424
29431;7.227539;-0.906626;4.273411;-0.156081;-0.064210;-0.366046;-0.299805;-0.101318;-0.697266;0.874729;0.025923;-0.479367;0.066211
29432;8.679450;-1.321999;5.659779;-0.025794;-0.148857;-0.358912;-0.296387;-0.099854;-0.699219;0.874358;0.027237;-0.480331;0.063549
29433;9.654130;-1.400556;6.892535;-0.036320;-0.120923;-0.320619;-0.299561;-0.102051;-0.697998;0.874074;0.028304;-0.481099;0.061129
29434;9.826857;-1.211787;6.366608;-0.079169;-0.002764;-0.268219;-0.288330;-0.101318;-0.704102;0.874242;0.028788;-0.481038;0.058949
29435;10.245433;-1.363086;6.625816;0.074363;0.019783;-0.237217;-0.289795;-0.108154;-0.702637;0.874446;0.030255;-0.480739;0.057616
29436;11.454506;-0.875899;6.992081;0.101481;0.205979;-0.148193;-0.287109;-0.110596;-0.706055;0.875340;0.031475;-0.479092;0.057093
29437;13.133689;0.081814;7.891235;0.235851;0.332103;-0.128647;-0.286621;-0.115967;-0.705322;0.876686;0.033535;-0.476463;0.057282
29438;13.954622;0.636941;8.707374;0.208796;0.220512;-0.174747;-0.293213;-0.117188;-0.703125;0.877606;0.035634;-0.474646;0.056994
29439;12.002695;0.238223;6.871212;-0.112186;0.411354;0.027404;-0.279541;-0.105225;-0.710938;0.879270;0.034492;-0.471646;0.056965
29440;9.756988;0.400575;4.887661;-0.104635;0.524893;0.229990;-0.273193;-0.115723;-0.707520;0.881269;0.032544;-0.467854;0.058467
29441;8.580164;1.429623;4.616884;-0.362091;0.699862;0.420113;-0.262939;-0.108154;-0.709961;0.883887;0.027895;-0.462941;0.060428
29442;7.775893;2.819765;4.390991;-0.565156;0.769584;0.364426;-0.253906;-0.095459;-0.714844;0.886792;0.021927;-0.457573;0.061201
29443;7.549586;3.988451;5.040325;-0.499641;0.383509;-0.113615;-0.259033;-0.093018;-0.712646;0.888412;0.018456;-0.454917;0.058603
29444;7.018051;3.487708;5.355664;-0.494295;-0.066964;-0.600441;-0.253662;-0.090576;-0.720947;0.888526;0.017097;-0.455509;0.052348
29445;6.969072;1.556384;5.370195;-0.391797;-0.301513;-0.781401;-0.246338;-0.090576;-0.712402;0.887774;0.017286;-0.457738;0.045097
29446;8.183588;0.307249;5.090866;-0.302984;-0.371289;-0.750639;-0.262451;-0.087646;-0.720703;0.886683;0.018045;-0.460427;0.038402
29447;10.034608;-0.029500;4.962941;-0.249805;-0.446833;-0.658197;-0.263916;-0.088379;-0.713135;0.885218;0.018857;-0.463652;0.032569
29448;10.920241;-0.603435;5.342654;-0.231260;-0.454230;-0.490279;-0.267090;-0.083252;-0.710449;0.883638;0.019161;-0.466938;0.028047
29449;9.945377;-1.015446;5.421472;-0.415045;-0.074617;-0.186720;-0.268311;-0.089844;-0.720215;0.883471;0.016835;-0.467510;0.025100
29450;8.847920;-0.866100;4.730627;-0.638530;0.138092;0.065427;-0.270508;-0.073975;-0.716797;0.884091;0.011848;-0.466588;0.023184
29451;7.599930;-0.342906;4.440772;-0.643927;0.103067;0.197658;-0.269531;-0.062012;-0.712891;0.884521;0.006301;-0.465929;0.022206
29452;6.351499;-0.302829;4.253659;-0.617453;-0.129762;0.229453;-0.266846;-0.051514;-0.711182;0.884010;0.000867;-0.466970;0.021549
29453;5.823712;-0.310516;4.223833;-0.496696;-0.345037;0.130039;-0.278076;-0.051758;-0.717041;0.882654;-0.003254;-0.469560;0.020626
29454;5.453541;0.102651;4.351587;-0.440865;-0.423201;0.004223;-0.281982;-0.045654;-0.718262;0.880990;-0.006449;-0.472708;0.019010
29455;5.772674;0.165781;4.208012;-0.381338;-0.495636;-0.114248;-0.281982;-0.042725;-0.705811;0.879041;-0.008731;-0.476371;0.016759
29456;6.098893;0.014532;4.282335;-0.337283;-0.468021;-0.166783;-0.292969;-0.042969;-0.704346;0.877189;-0.010479;-0.479818;0.014303
29457;6.315549;0.184218;4.357379;-0.316425;-0.360395;-0.186454;-0.297852;-0.033447;-0.707764;0.875751;-0.012004;-0.482469;0.011782
29458;6.612282;0.022855;4.473880;-0.270712;-0.257958;-0.178803;-0.303711;-0.035645;-0.701416;0.874718;-0.013251;-0.484358;0.009468
29459;6.870013;0.042668;4.577475;-0.204292;-0.140961;-0.178361;-0.304443;-0.032959;-0.708740;0.874155;-0.014015;-0.485387;0.007427
29460;7.026635;-0.187367;4.875329;-0.129619;-0.004884;-0.158085;-0.308350;-0.039551;-0.701904;0.874148;-0.014329;-0.485413;0.005811
29461;6.931766;-0.238679;5.246152;-0.040485;0.105249;-0.133930;-0.304688;-0.035645;-0.710938;0.874592;-0.014084;-0.484632;0.004738
29462;6.916871;-0.217142;5.274671;0.028840;0.197634;-0.085463;-0.298340;-0.034424;-0.703857;0.875415;-0.013544;-0.483163;0.004269
29463;6.835977;-0.189969;5.213010;0.031647;0.213778;-0.029704;-0.307373;-0.034180;-0.715820;0.876299;-0.013210;-0.481568;0.004214
29464;6.606522;-0.266073;4.893402;0.083492;0.181795;0.042904;-0.294434;-0.037598;-0.709229;0.877055;-0.012792;-0.480194;0.004895
29465;6.772407;-0.164233;4.702573;0.159608;0.081946;0.084162;-0.297852;-0.034668;-0.712891;0.877416;-0.011971;-0.479540;0.006202
29466;7.602908;-0.058682;6.036900;0.337068;-0.067447;0.067024;-0.306885;-0.044434;-0.704102;0.877194;-0.009784;-0.479968;0.008095
29467;8.938601;0.096567;7.369284;0.375770;-0.130979;0.062249;-0.297363;-0.047363;-0.709229;0.876711;-0.007279;-0.480856;0.010130
29468;9.821843;0.103426;7.515307;0.254615;-0.098447;0.107391;-0.299561;-0.053955;-0.707275;0.876342;-0.005846;-0.481504;0.011998
29469;9.998393;-0.023759;7.356307;0.178594;-0.028649;0.171032;-0.295166;-0.046631;-0.708984;0.876239;-0.005225;-0.481644;0.014030
29470;10.129412;0.113938;6.940222;0.091671;0.230917;0.286921;-0.293701;-0.048096;-0.715820;0.877156;-0.005746;-0.479886;0.016527
29471;12.290909;-0.029369;7.323570;0.188415;0.238199;0.375732;-0.290771;-0.046875;-0.701660;0.878083;-0.005914;-0.478051;0.020061
29472;15.053340;-0.554478;9.799524;0.274776;-0.133815;0.315563;-0.299072;-0.054932;-0.705811;0.877526;-0.005144;-0.478924;0.023521
29473;14.265853;-0.070065;8.663301;-0.376723;0.295250;0.486481;-0.298584;-0.050781;-0.707275;0.878599;-0.009896;-0.476770;0.025624
29474;10.526939;-0.821018;6.238786;-0.708679;0.479046;0.529213;-0.285156;-0.034912;-0.708984;0.880319;-0.017283;-0.473315;0.026708
29475;8.054913;-0.273602;3.675033;-0.635787;0.661702;0.413776;-0.279297;-0.030518;-0.718506;0.882734;-0.023729;-0.468485;0.027192
29476;7.453476;-0.337743;3.585648;-0.625090;0.727269;0.285630;-0.267334;-0.016357;-0.724609;0.885372;-0.029602;-0.463166;0.026770
29477;7.276601;-0.956196;2.952530;-0.612017;0.851983;0.305758;-0.265137;-0.004639;-0.720459;0.888424;-0.035493;-0.456882;0.026498
29478;6.987809;-2.004070;2.653279;-0.215836;0.554531;0.275371;-0.261719;-0.014160;-0.721436;0.890412;-0.038272;-0.452704;0.027591
29479;6.739782;-2.526498;2.337713;0.306640;-0.003539;0.323288;-0.258545;-0.012207;-0.721680;0.890426;-0.037201;-0.452528;0.031229
29480;6.944623;-1.952628;2.216031;0.756301;-0.476229;0.388918;-0.257568;-0.015625;-0.720947;0.888745;-0.032929;-0.455704;0.037177
29481;8.242738;-1.048444;3.642454;1.139843;-0.789861;0.407772;-0.271484;-0.025879;-0.719238;0.885878;-0.025797;-0.461029;0.044792
29482;10.360029;-0.081517;5.592106;1.318015;-0.873962;0.393826;-0.285889;-0.041260;-0.722412;0.882584;-0.017263;-0.466839;0.052994
29483;11.287764;0.378892;6.567111;1.068480;-0.479557;0.381182;-0.288086;-0.051758;-0.713623;0.880666;-0.010683;-0.469793;0.060066
29484;9.627596;0.176288;6.174900;0.603641;-0.068560;0.302038;-0.291748;-0.063477;-0.712891;0.880293;-0.007407;-0.469939;0.064697
29485;8.796774;-0.088640;5.394890;0.335983;-0.004509;0.183526;-0.298584;-0.057617;-0.713623;0.880198;-0.005649;-0.469760;0.067420
29486;8.636340;-0.169544;5.240332;0.122633;0.213023;0.124890;-0.291504;-0.060791;-0.708984;0.880971;-0.005371;-0.468105;0.068837
29487;7.419285;0.026010;5.363181;0.077580;0.436320;0.049329;-0.287109;-0.074463;-0.714111;0.882647;-0.005247;-0.464837;0.069524
29488;6.302512;0.067650;5.125695;0.168620;0.439988;-0.049526;-0.283691;-0.063965;-0.720703;0.884382;-0.004041;-0.461487;0.069873
29489;5.613525;-0.054175;4.791473;0.243645;0.184748;-0.190743;-0.276123;-0.070312;-0.718262;0.885215;-0.001628;-0.459970;0.069427
29490;5.496011;-0.331262;4.372819;0.397565;-0.048031;-0.253916;-0.283203;-0.072021;-0.721924;0.885183;0.002306;-0.460074;0.069117
29491;5.941012;-0.521309;4.352421;0.463954;-0.139478;-0.259633;-0.281738;-0.083740;-0.719727;0.884788;0.006793;-0.460808;0.069001
29492;6.519833;-0.651209;4.654631;0.441365;-0.222605;-0.284264;-0.291016;-0.094727;-0.710693;0.884068;0.011270;-0.462155;0.068628
29493;6.961284;-0.824376;4.891971;0.398367;-0.249134;-0.255932;-0.289795;-0.097412;-0.711182;0.883210;0.015351;-0.463721;0.068315
29494;7.139929;-0.975613;5.141410;0.248610;-0.187012;-0.198491;-0.283936;-0.097168;-0.715820;0.882570;0.018058;-0.464912;0.067836
29495;7.204952;-1.022899;5.142347;0.103763;-0.034905;-0.131740;-0.287598;-0.109375;-0.710938;0.882502;0.019342;-0.465068;0.067291
29496;7.173864;-1.065748;5.006394;-0.065086;0.079150;-0.088782;-0.286621;-0.105957;-0.706055;0.882872;0.019182;-0.464490;0.066465
29497;7.022731;-1.084695;4.792636;-0.208881;0.160590;-0.054904;-0.285645;-0.107666;-0.722656;0.883559;0.017778;-0.463398;0.065336
29498;6.712901;-0.970706;4.617627;-0.317579;0.185699;-0.081818;-0.280762;-0.103516;-0.713623;0.884369;0.015664;-0.462171;0.063592
29499;6.618380;-0.834246;4.370595;-0.368779;0.190394;-0.137403;-0.281006;-0.099365;-0.714844;0.885222;0.013383;-0.460925;0.061243
29500;7.001873;-0.866651;4.870136;-0.257486;0.068525;-0.197788;-0.281250;-0.094971;-0.722168;0.885615;0.012213;-0.460513;0.058858
29501;7.741537;-1.022331;5.587755;-0.174094;-0.017895;-0.214026;-0.276367;-0.090820;-0.718994;0.885672;0.011753;-0.460692;0.056653
29502;8.613708;-1.336705;6.282134;-0.032392;-0.114750;-0.198615;-0.287109;-0.092529;-0.715088;0.885334;0.012320;-0.461517;0.055088
29503;9.232724;-1.421252;6.927085;0.080390;-0.135009;-0.166386;-0.288086;-0.093018;-0.716553;0.884884;0.013607;-0.462446;0.054202
29504;9.434241;-1.382522;6.624926;0.030184;0.071246;-0.058714;-0.281006;-0.093994;-0.714600;0.885186;0.014012;-0.461887;0.053935
29505;9.779471;-1.021721;6.071107;-0.005492;0.251791;0.017438;-0.273438;-0.100342;-0.721191;0.886151;0.013782;-0.460018;0.054118
29506;11.152053;-0.417665;7.422322;0.196195;0.179363;-0.065972;-0.275879;-0.094238;-0.723877;0.886848;0.015405;-0.458581;0.054467
29507;12.921823;0.296431;9.017358;0.222837;0.154469;-0.154798;-0.266602;-0.104004;-0.723389;0.887483;0.017551;-0.457303;0.054225
29508;12.703798;0.276493;9.095809;0.032997;0.217573;-0.178222;-0.275879;-0.103516;-0.720215;0.888390;0.018373;-0.455636;0.053117
29509;10.355219;0.333772;6.773349;-0.230090;0.478531;-0.076013;-0.257324;-0.101074;-0.728027;0.890269;0.016741;-0.452169;0.051804
29510;9.068596;0.712389;5.293474;-0.245352;0.570979;0.046133;-0.255371;-0.094727;-0.732910;0.892428;0.014492;-0.448025;0.051343
29511;8.479284;0.945077;5.900371;-0.371947;0.658582;0.117634;-0.241943;-0.095947;-0.729980;0.894868;0.010987;-0.443279;0.050934
29512;6.963552;1.676212;5.471367;-0.706318;0.806897;0.052261;-0.244873;-0.085205;-0.736084;0.897857;0.005191;-0.437538;0.048845
29513;5.381144;2.212577;3.688576;-0.900800;0.617108;-0.185874;-0.232666;-0.075439;-0.739258;0.900184;-0.001120;-0.433256;0.044241
29514;4.752083;1.893125;3.278606;-0.795427;0.087142;-0.513559;-0.233887;-0.067871;-0.734619;0.900654;-0.005258;-0.432880;0.037561
29515;5.168471;1.674540;4.285845;-0.660415;-0.393361;-0.815370;-0.241211;-0.070557;-0.737793;0.899421;-0.007138;-0.436053;0.029126
29516;6.539540;1.630113;4.718459;-0.760380;-0.638211;-0.954593;-0.239990;-0.052490;-0.740723;0.897228;-0.009172;-0.441048;0.019328
29517;8.301194;1.637398;4.749344;-0.698213;-0.707809;-0.890031;-0.246582;-0.045654;-0.729736;0.894666;-0.011021;-0.446484;0.010166
29518;10.684819;0.879257;5.714869;-0.647087;-0.794954;-0.836792;-0.268799;-0.049316;-0.734375;0.891668;-0.012679;-0.452509;0.001592
29519;12.026147;0.089247;6.406166;-0.648966;-0.566268;-0.752696;-0.268799;-0.033691;-0.733643;0.889432;-0.014637;-0.456789;-0.006348
29520;10.863598;-0.087541;5.751136;-0.851867;-0.191454;-0.497258;-0.267334;-0.031738;-0.732422;0.888542;-0.019100;-0.458206;-0.013277
