// Start Time: Unknown
// Update Rate: 60.0Hz
// Filter Profile: human (46.1)
// Firmware Version: 4.4.0
PacketCounter;Acc_X;Acc_Y;Acc_Z;Gyr_X;Gyr_Y;Gyr_Z;Mag_X;Mag_Y;Mag_Z;Quat_q0;Quat_q1;Quat_q2;Quat_q3
28597;9.842941;0.047610;0.190260;0.002591;0.012286;-0.014145;-0.711670;-0.375977;-0.314941;0.647897;0.297024;-0.634165;0.299735
28598;9.871727;0.032422;0.204829;0.005286;0.010545;-0.009875;-0.712891;-0.373779;-0.312988;0.647964;0.297078;-0.634070;0.299736
28599;9.830838;0.005304;0.243699;0.009452;0.012109;-0.009176;-0.715820;-0.375244;-0.310059;0.648025;0.297146;-0.633962;0.299768
28600;9.828100;0.049089;0.257714;0.008516;0.008872;-0.010896;-0.712402;-0.375977;-0.306885;0.648078;0.297227;-0.633865;0.299777
28601;9.845045;0.059499;0.232391;-0.001360;0.006411;-0.007976;-0.710449;-0.362549;-0.318359;0.648137;0.297244;-0.633813;0.299743
28602;9.842743;0.055629;0.198136;-0.004590;0.008081;-0.006951;-0.711426;-0.373535;-0.311035;0.648210;0.297235;-0.633761;0.299703
28603;9.839907;0.022772;0.210796;-0.004864;0.010817;-0.007224;-0.713379;-0.375000;-0.315430;0.648300;0.297218;-0.633695;0.299666
28604;9.835257;0.017980;0.231777;-0.001971;0.009624;-0.006914;-0.714600;-0.363037;-0.310791;0.648375;0.297218;-0.633628;0.299645
28605;9.818775;0.039257;0.212976;-0.003977;0.004866;-0.008008;-0.716797;-0.375977;-0.308838;0.648433;0.297221;-0.633589;0.299597
28606;9.798597;0.040528;0.209061;-0.007744;0.005774;-0.006669;-0.724365;-0.379639;-0.315918;0.648502;0.297195;-0.633558;0.299540
28607;9.850852;0.011123;0.168654;-0.010163;0.005467;-0.005684;-0.711426;-0.380615;-0.322266;0.648573;0.297150;-0.633537;0.299476
28608;9.855822;-0.024829;0.192575;-0.004513;0.004105;-0.007691;-0.708008;-0.373535;-0.310059;0.648625;0.297147;-0.633507;0.299429
28609;9.842515;-0.012926;0.204306;0.002083;0.000438;-0.002139;-0.710205;-0.374512;-0.311035;0.648624;0.297156;-0.633498;0.299441
28610;9.831447;0.004031;0.251194;0.002622;0.000506;-0.007429;-0.708496;-0.373779;-0.315186;0.648634;0.297192;-0.633476;0.299433
28611;9.834235;0.038646;0.239621;-0.004287;-0.006434;0.000023;-0.720703;-0.371826;-0.316162;0.648607;0.297163;-0.633525;0.299415
28612;9.849020;0.042392;0.176373;-0.017591;-0.008817;0.000456;-0.714844;-0.375488;-0.317871;0.648601;0.297062;-0.633621;0.299327
28613;9.866961;0.036888;0.143940;-0.010993;-0.012831;0.003520;-0.720459;-0.370605;-0.313721;0.648548;0.296993;-0.633730;0.299277
28614;9.819312;-0.003529;0.162056;-0.005665;-0.019950;0.003704;-0.720947;-0.374756;-0.321777;0.648437;0.296969;-0.633872;0.299241
28615;9.815686;-0.024455;0.173606;-0.004241;-0.024450;0.007582;-0.709717;-0.375488;-0.312012;0.648288;0.296938;-0.634048;0.299222
28616;9.814850;-0.012121;0.173316;-0.006444;-0.029414;0.012941;-0.715820;-0.375244;-0.313965;0.648100;0.296891;-0.634268;0.299209
28617;9.811260;-0.034729;0.183214;-0.000240;-0.035218;0.018949;-0.715088;-0.377441;-0.313477;0.647847;0.296850;-0.634525;0.299253
28618;9.812804;-0.018514;0.216431;-0.002645;-0.042459;0.015834;-0.707764;-0.379395;-0.314453;0.647568;0.296829;-0.634820;0.299253
28619;9.812079;-0.007563;0.212738;-0.007048;-0.053083;0.021595;-0.716309;-0.366211;-0.306641;0.647239;0.296787;-0.635186;0.299231
28620;9.799800;0.057520;0.122600;-0.021288;-0.051436;0.026969;-0.723389;-0.371338;-0.307129;0.646930;0.296618;-0.635602;0.299183
28621;9.817850;0.000753;0.036516;-0.027889;-0.040496;0.028054;-0.720459;-0.370605;-0.311523;0.646682;0.296379;-0.635987;0.299135
28622;9.857531;-0.061781;0.132603;-0.019506;-0.035796;0.022849;-0.714355;-0.370361;-0.305908;0.646454;0.296203;-0.636317;0.299101
28623;9.844994;-0.144179;0.132665;-0.013470;-0.035378;0.017887;-0.714111;-0.361816;-0.304932;0.646224;0.296107;-0.636608;0.299075
28624;9.853183;-0.120887;0.092681;-0.009922;-0.031287;0.014655;-0.724854;-0.363770;-0.309570;0.646014;0.296016;-0.636866;0.299069
28625;9.832156;-0.062387;0.135045;-0.000768;-0.029799;0.018471;-0.720215;-0.361572;-0.308838;0.645763;0.295908;-0.637132;0.299150
28626;9.819898;-0.021006;0.185150;-0.000843;-0.032753;0.015110;-0.731201;-0.368896;-0.312256;0.645517;0.295833;-0.637394;0.299198
28627;9.829503;-0.054497;0.183753;-0.011068;-0.029183;0.013572;-0.728027;-0.366699;-0.303223;0.645303;0.295670;-0.637682;0.299208
28628;9.873512;-0.083686;0.125658;-0.006258;-0.022668;0.008214;-0.714111;-0.358154;-0.308105;0.645115;0.295586;-0.637891;0.299250
28629;9.878826;-0.093201;0.098901;-0.002157;-0.017128;0.009629;-0.715820;-0.365723;-0.310547;0.645006;0.295512;-0.638022;0.299278
28630;9.840218;-0.075339;0.126463;-0.005254;-0.017167;0.008320;-0.726807;-0.370361;-0.309082;0.644901;0.295426;-0.638164;0.299287
28631;9.815000;-0.039367;0.095827;-0.009286;-0.020103;0.007791;-0.727295;-0.364746;-0.307617;0.644753;0.295300;-0.638365;0.299300
28632;9.836848;-0.068484;0.089346;-0.011871;-0.013472;0.002794;-0.712891;-0.361328;-0.298584;0.644659;0.295163;-0.638529;0.299289
28633;9.878879;-0.097423;0.088964;-0.013962;-0.001417;0.003199;-0.729980;-0.368164;-0.308594;0.644639;0.295104;-0.638573;0.299296
28634;9.832208;-0.104481;0.153259;-0.013566;-0.005873;0.001125;-0.718018;-0.370850;-0.308594;0.644585;0.294939;-0.638708;0.299288
28635;9.860503;-0.079096;0.122073;-0.022084;-0.009556;0.003759;-0.722168;-0.363037;-0.310059;0.644565;0.294795;-0.638832;0.299209
28636;9.863340;-0.045428;0.109845;-0.027482;-0.005365;0.000228;-0.732422;-0.368408;-0.309326;0.644593;0.294564;-0.638965;0.299093
28637;9.873840;-0.061621;0.062743;-0.031177;0.004400;0.001605;-0.717041;-0.365479;-0.310547;0.644636;0.294260;-0.639095;0.299020
28638;9.887573;-0.133660;0.000415;-0.025959;0.013397;-0.001727;-0.718750;-0.364990;-0.305420;0.644784;0.294049;-0.639087;0.298924
28639;9.841919;-0.124726;0.017830;-0.024976;0.024811;-0.004980;-0.721680;-0.359863;-0.311035;0.644952;0.293867;-0.639022;0.298882
28640;9.771524;-0.103891;0.145116;-0.022276;0.022710;-0.003208;-0.722900;-0.364502;-0.311279;0.645119;0.293601;-0.638997;0.298836
28641;9.860384;-0.077952;0.131985;-0.022883;0.012752;-0.005391;-0.723389;-0.365234;-0.313477;0.645233;0.293388;-0.639016;0.298757
28642;9.849093;-0.065032;0.091370;-0.013600;0.019112;-0.002331;-0.721680;-0.362549;-0.309082;0.645365;0.293174;-0.638986;0.298747
28643;9.886880;-0.069915;0.069236;-0.018445;0.030986;-0.002043;-0.725098;-0.360596;-0.310303;0.645543;0.292951;-0.638899;0.298769
28644;9.870023;-0.078516;0.100988;-0.022211;0.031551;-0.003157;-0.732422;-0.352295;-0.308838;0.645726;0.292671;-0.638841;0.298769
28645;9.833774;-0.100974;0.123728;-0.028450;0.029534;-0.001660;-0.722900;-0.361816;-0.307129;0.645865;0.292281;-0.638875;0.298780
28646;9.834052;-0.071685;0.082088;-0.026084;0.027904;0.001450;-0.721680;-0.362793;-0.312988;0.646000;0.292044;-0.638838;0.298799
28647;9.855024;-0.086272;0.087027;-0.019561;0.027505;0.002737;-0.725342;-0.371338;-0.316650;0.646166;0.291783;-0.638786;0.298806
28648;9.838490;-0.066247;0.071835;-0.020239;0.027775;0.000435;-0.718750;-0.359131;-0.310303;0.646351;0.291533;-0.638727;0.298776
28649;9.838452;-0.066746;0.076439;-0.026404;0.028694;0.005309;-0.728516;-0.362549;-0.307373;0.646510;0.291264;-0.638684;0.298786
28650;9.823953;-0.071728;0.143204;-0.033601;0.029357;0.001734;-0.721436;-0.358154;-0.315430;0.646618;0.290988;-0.638697;0.298794
28651;9.830938;-0.107593;0.116085;-0.036298;0.031115;-0.002502;-0.720215;-0.352295;-0.312988;0.646865;0.290618;-0.638670;0.298677
28652;9.844924;-0.132064;0.105646;-0.025018;0.034983;-0.004942;-0.715576;-0.357666;-0.315186;0.647085;0.290310;-0.638603;0.298643
28653;9.875867;-0.147176;0.069473;-0.016622;0.040379;-0.005171;-0.729980;-0.358398;-0.323242;0.647351;0.290087;-0.638438;0.298637
28654;9.858867;-0.155565;0.102681;-0.007483;0.041526;-0.003852;-0.717041;-0.359375;-0.316895;0.647601;0.289710;-0.638343;0.298661
28655;9.823161;-0.145005;0.170245;-0.007547;0.032347;-0.006401;-0.720215;-0.364746;-0.311523;0.647796;0.289565;-0.638203;0.298680
28656;9.808156;-0.104861;0.194656;-0.015402;0.021135;-0.008144;-0.718262;-0.365723;-0.312500;0.647869;0.289543;-0.638134;0.298691
28657;9.821950;-0.082205;0.229968;-0.018887;0.013049;-0.005687;-0.725342;-0.357666;-0.312256;0.647920;0.289518;-0.638106;0.298662
28658;9.821918;-0.081465;0.231570;-0.017337;0.006825;-0.004202;-0.729980;-0.359863;-0.318848;0.647890;0.289383;-0.638198;0.298662
28659;9.845503;-0.137407;0.219796;-0.015448;0.000792;0.000929;-0.717529;-0.361572;-0.315430;0.647867;0.289141;-0.638348;0.298628
28660;9.884383;-0.156045;0.189739;-0.010752;0.002136;-0.006182;-0.723145;-0.353027;-0.319336;0.647885;0.289113;-0.638361;0.298586
28661;9.887564;-0.167320;0.131515;-0.008877;0.007930;-0.007689;-0.716064;-0.360596;-0.316162;0.647953;0.288880;-0.638422;0.298534
28662;9.894475;-0.155218;0.149146;-0.009885;0.008673;-0.008656;-0.714600;-0.354492;-0.319336;0.648024;0.288843;-0.638387;0.298492
28663;9.871166;-0.144230;0.114495;-0.010421;0.007909;-0.008341;-0.722656;-0.359131;-0.313965;0.648140;0.288673;-0.638385;0.298408
28664;9.830853;-0.142440;0.106592;-0.005320;0.012372;-0.008407;-0.719238;-0.359863;-0.316650;0.648139;0.288641;-0.638379;0.298455
28665;9.776673;-0.158880;0.156882;0.004886;0.014404;-0.012708;-0.718506;-0.361084;-0.317871;0.648190;0.288661;-0.638299;0.298494
28666;9.783056;-0.178518;0.131047;0.004420;0.009671;-0.013167;-0.723145;-0.350586;-0.315918;0.648238;0.288691;-0.638234;0.298501
28667;9.815624;-0.173397;0.130008;0.004020;0.007209;-0.015219;-0.724365;-0.358398;-0.319092;0.648219;0.288594;-0.638282;0.298531
28668;9.837178;-0.151999;0.175829;-0.001958;0.007699;-0.021798;-0.716797;-0.354492;-0.308350;0.648270;0.288544;-0.638287;0.298459
28669;9.848712;-0.131487;0.173979;0.003822;0.005319;-0.021227;-0.720215;-0.358643;-0.314697;0.648175;0.288735;-0.638260;0.298539
28670;9.840978;-0.124788;0.162922;0.013291;0.006018;-0.021247;-0.716553;-0.364014;-0.319336;0.648139;0.288875;-0.638209;0.298589
28671;9.853393;-0.118408;0.156748;0.011746;0.006324;-0.019406;-0.719971;-0.360107;-0.315186;0.648199;0.289002;-0.638100;0.298571
28672;9.865805;-0.112183;0.150501;0.005704;0.005196;-0.019408;-0.723633;-0.365234;-0.320312;0.648180;0.289097;-0.638071;0.298581
28673;9.852531;-0.098140;0.162527;0.000272;0.001192;-0.018004;-0.716553;-0.358398;-0.325195;0.648204;0.289121;-0.638071;0.298507
28674;9.833327;-0.108699;0.153429;0.004175;-0.001397;-0.021731;-0.722900;-0.353027;-0.324463;0.648341;0.289013;-0.638061;0.298334
28675;9.829670;-0.125111;0.168296;0.006120;0.000426;-0.024000;-0.722900;-0.358154;-0.322998;0.648433;0.288819;-0.638119;0.298198
28676;9.817338;-0.124155;0.175331;0.008278;-0.002758;-0.024425;-0.727783;-0.360352;-0.320801;0.648478;0.288761;-0.638153;0.298085
28677;9.826627;-0.107794;0.136294;0.010635;-0.004709;-0.023823;-0.715088;-0.365723;-0.309082;0.648437;0.288771;-0.638215;0.298031
28678;9.831290;-0.097453;0.116514;0.010361;-0.002306;-0.026560;-0.716064;-0.356201;-0.315674;0.648308;0.289207;-0.638120;0.298093
28679;9.816129;-0.054120;0.135884;0.004261;-0.006043;-0.027459;-0.722168;-0.359375;-0.309814;0.648281;0.289301;-0.638142;0.298014
28680;9.802843;-0.038925;0.146004;-0.007545;-0.010720;-0.024722;-0.725342;-0.357910;-0.324951;0.648112;0.289475;-0.638250;0.297979
28681;9.788683;-0.083122;0.246457;-0.019359;-0.030812;-0.023726;-0.719727;-0.360596;-0.319336;0.648106;0.289232;-0.638538;0.297612
28682;9.789827;-0.092943;0.236072;-0.025822;-0.043596;-0.028323;-0.719727;-0.360107;-0.318848;0.648005;0.289212;-0.638832;0.297219
28683;9.833598;-0.100946;0.179699;-0.015087;-0.040119;-0.027933;-0.722900;-0.354492;-0.320312;0.647895;0.289235;-0.639082;0.296899
28684;9.888690;-0.092380;0.120443;-0.011713;-0.042150;-0.021383;-0.715332;-0.360352;-0.303955;0.647756;0.289100;-0.639414;0.296619
28685;9.875758;-0.048943;0.079395;-0.007637;-0.035937;-0.014951;-0.721924;-0.361572;-0.310059;0.647391;0.289473;-0.639602;0.296646
28686;9.835467;-0.046347;0.064886;0.002389;-0.025600;-0.015227;-0.725342;-0.361572;-0.318604;0.647142;0.289679;-0.639763;0.296643
28687;9.833148;-0.048690;0.026211;0.019325;-0.013152;-0.012199;-0.710938;-0.365479;-0.314697;0.647049;0.289694;-0.639851;0.296641
28688;9.818256;-0.084116;0.041569;0.034670;-0.018423;-0.009955;-0.711670;-0.358643;-0.322754;0.646918;0.290022;-0.639794;0.296730
28689;9.776777;-0.098153;0.078857;0.043730;-0.028348;-0.007119;-0.720947;-0.351562;-0.307373;0.646850;0.290076;-0.639838;0.296728
28690;9.805301;-0.067013;0.134986;0.038753;-0.028639;-0.012687;-0.722412;-0.355225;-0.316406;0.646463;0.290343;-0.640001;0.296960
28691;9.842365;-0.055840;0.108175;0.030250;-0.032384;-0.010068;-0.715576;-0.360596;-0.313721;0.646246;0.290362;-0.640201;0.296981
28692;9.867176;-0.018825;0.042646;0.022495;-0.025277;-0.006697;-0.723389;-0.363525;-0.312012;0.646088;0.290485;-0.640293;0.297006
28693;9.887374;-0.017749;0.044325;0.029673;-0.011148;-0.006399;-0.731201;-0.360107;-0.315186;0.645911;0.290656;-0.640328;0.297150
28694;9.909018;-0.077043;-0.004338;0.041959;0.000550;-0.010318;-0.721436;-0.357910;-0.314697;0.645787;0.290703;-0.640344;0.297338
28695;9.877429;-0.121669;0.040624;0.050416;0.002009;-0.011310;-0.720947;-0.364258;-0.313721;0.645712;0.290815;-0.640274;0.297543
28696;9.809445;-0.112874;0.105230;0.046448;0.000972;-0.015912;-0.724609;-0.366943;-0.315674;0.645648;0.291051;-0.640159;0.297698
28697;9.805547;-0.054270;0.122231;0.041958;-0.000150;-0.015237;-0.719482;-0.361084;-0.316895;0.645606;0.291222;-0.640077;0.297798
28698;9.811461;-0.026397;0.142350;0.034846;-0.003513;-0.019550;-0.724365;-0.365479;-0.312744;0.645626;0.291283;-0.640025;0.297806
28699;9.807067;-0.000333;0.114806;0.020941;-0.002410;-0.015491;-0.708496;-0.363770;-0.310303;0.645575;0.291388;-0.640014;0.297839
28700;9.829787;-0.072499;0.063411;0.008244;0.007021;-0.016872;-0.732422;-0.363525;-0.311279;0.645668;0.291516;-0.639875;0.297811
28701;9.845563;-0.046368;0.043016;0.007431;0.017500;-0.019277;-0.730469;-0.367432;-0.309570;0.645679;0.291491;-0.639850;0.297865
28702;9.864344;-0.062052;0.011188;0.015407;0.020807;-0.019070;-0.720459;-0.363281;-0.303955;0.645677;0.291604;-0.639749;0.297977
28703;9.870198;-0.034105;0.035073;0.015943;0.021913;-0.016898;-0.713379;-0.361816;-0.311279;0.645625;0.291838;-0.639597;0.298186
28704;9.821923;-0.057677;0.063731;0.020246;0.022131;-0.016078;-0.725098;-0.350586;-0.312744;0.645742;0.291906;-0.639407;0.298274
28705;9.814001;-0.080733;0.101451;0.019661;0.018065;-0.021594;-0.716064;-0.365723;-0.317627;0.645782;0.291758;-0.639390;0.298368
28706;9.847886;-0.026155;0.095233;0.008696;0.020249;-0.018867;-0.721680;-0.367188;-0.311523;0.646022;0.291670;-0.639235;0.298266
28707;9.817772;0.007502;0.090377;-0.006570;0.022554;-0.014481;-0.709473;-0.367188;-0.312012;0.646144;0.291631;-0.639140;0.298243
28708;9.784989;-0.026087;0.052914;-0.005168;0.023606;-0.016433;-0.713135;-0.366699;-0.315918;0.646357;0.291652;-0.638948;0.298173
28709;9.793860;-0.040359;0.064287;-0.002316;0.019820;-0.017013;-0.724365;-0.368164;-0.319092;0.646581;0.291586;-0.638803;0.298061
28710;9.822903;-0.054561;0.080060;-0.004731;0.019496;-0.016021;-0.727051;-0.359619;-0.311035;0.646786;0.291405;-0.638741;0.297929
28711;9.815056;-0.049209;0.071139;-0.005795;0.018310;-0.012912;-0.721924;-0.362549;-0.316162;0.646788;0.291296;-0.638756;0.297998
28712;9.798212;-0.056366;0.100074;-0.011784;0.010919;-0.012073;-0.720459;-0.355957;-0.315674;0.646894;0.291102;-0.638781;0.297902
28713;9.859879;-0.039058;0.065297;-0.015795;0.008300;-0.010144;-0.719238;-0.362793;-0.310303;0.646973;0.290826;-0.638862;0.297827
28714;9.865444;-0.045177;0.043636;-0.010529;0.013686;-0.011677;-0.716797;-0.365479;-0.312500;0.646992;0.290812;-0.638841;0.297846
28715;9.828430;-0.052683;0.068020;-0.005120;0.018049;-0.010598;-0.721191;-0.363037;-0.312988;0.647077;0.290800;-0.638757;0.297852
28716;9.835171;-0.040268;0.086967;-0.004495;0.015528;-0.006705;-0.725098;-0.359131;-0.315674;0.647110;0.290720;-0.638740;0.297895
28717;9.821739;-0.028170;0.100988;-0.000869;0.016014;-0.008181;-0.719727;-0.358887;-0.310303;0.647154;0.290539;-0.638759;0.297935
28718;9.827161;-0.063875;0.126658;0.000194;0.017542;-0.008803;-0.719727;-0.364014;-0.313232;0.647139;0.290521;-0.638725;0.298057
28719;9.879795;-0.058952;0.131542;-0.004681;0.013941;-0.010193;-0.725342;-0.366211;-0.314453;0.647181;0.290492;-0.638691;0.298069
28720;9.843993;-0.051379;0.104998;-0.006225;0.013906;-0.010846;-0.722412;-0.360107;-0.313721;0.647214;0.290443;-0.638682;0.298064
28721;9.821630;-0.054391;0.067815;0.001020;0.023720;-0.013747;-0.717041;-0.366943;-0.313965;0.647286;0.290368;-0.638615;0.298125
28722;9.842855;-0.066071;0.072989;-0.004159;0.032035;-0.012873;-0.716309;-0.366211;-0.315430;0.647452;0.290358;-0.638439;0.298149
28723;9.875328;-0.060851;0.075832;0.000476;0.032134;-0.010894;-0.716553;-0.366455;-0.311523;0.647625;0.290326;-0.638259;0.298192
28724;9.850518;-0.032428;0.138929;0.002948;0.026223;-0.011035;-0.712402;-0.356445;-0.309326;0.647684;0.290422;-0.638105;0.298301
28725;9.821186;-0.042836;0.176624;-0.003467;0.022585;-0.013088;-0.716309;-0.363525;-0.319336;0.647725;0.290411;-0.638028;0.298386
28726;9.810131;-0.028523;0.137031;-0.013416;0.023321;-0.014373;-0.725342;-0.353516;-0.313965;0.647941;0.290229;-0.637945;0.298271
28727;9.828136;-0.030992;0.110550;-0.016950;0.027692;-0.013595;-0.712646;-0.360352;-0.306641;0.648031;0.289954;-0.637978;0.298273
28728;9.857126;-0.045794;0.127832;-0.006811;0.028191;-0.011277;-0.721436;-0.358398;-0.313965;0.648041;0.290054;-0.637852;0.298423
28729;9.852487;-0.049989;0.151087;-0.001094;0.020645;-0.012454;-0.726807;-0.358398;-0.314697;0.648073;0.289974;-0.637829;0.298482
28730;9.799588;-0.018498;0.195542;-0.000457;0.017438;-0.013521;-0.720459;-0.372070;-0.311035;0.648065;0.289884;-0.637852;0.298538
28731;9.805272;-0.024393;0.175002;-0.005107;0.018019;-0.010543;-0.719727;-0.368652;-0.317383;0.648030;0.290102;-0.637736;0.298650
28732;9.835709;-0.024347;0.140270;-0.009560;0.019493;-0.009022;-0.720947;-0.373047;-0.322021;0.648120;0.290085;-0.637653;0.298648
28733;9.855800;-0.022620;0.148181;-0.002885;0.017452;-0.010057;-0.715332;-0.361572;-0.313721;0.648239;0.290104;-0.637531;0.298631
28734;9.852296;-0.041083;0.165541;0.006453;0.010749;-0.010230;-0.718018;-0.360352;-0.313965;0.648220;0.290159;-0.637491;0.298704
28735;9.835283;-0.048578;0.193520;0.007624;0.008309;-0.011607;-0.719238;-0.363525;-0.324951;0.648177;0.290196;-0.637486;0.298769
28736;9.811999;-0.037646;0.159052;0.002209;0.012769;-0.012640;-0.721924;-0.359131;-0.318115;0.648329;0.290043;-0.637440;0.298688
28737;9.824341;-0.032281;0.154448;0.004041;0.018559;-0.014124;-0.715820;-0.357178;-0.323730;0.648393;0.289942;-0.637413;0.298707
28738;9.850216;-0.037796;0.138855;-0.001330;0.017135;-0.011863;-0.716064;-0.363770;-0.319824;0.648578;0.289678;-0.637389;0.298612
28739;9.861401;-0.018544;0.138526;0.003806;0.015060;-0.013554;-0.722656;-0.359619;-0.316895;0.648668;0.289661;-0.637307;0.298605
28740;9.853262;-0.042761;0.175373;0.004323;0.016170;-0.011384;-0.724121;-0.365967;-0.323486;0.648673;0.289609;-0.637295;0.298672
28741;9.827702;-0.065865;0.152935;0.007327;0.019520;-0.014243;-0.712891;-0.355469;-0.315674;0.648782;0.289553;-0.637208;0.298675
28742;9.839989;0.001857;0.146500;0.006996;0.019645;-0.015385;-0.715332;-0.359863;-0.319580;0.648846;0.289514;-0.637136;0.298727
28743;9.864706;0.010414;0.135627;0.001844;0.022060;-0.011218;-0.721436;-0.366211;-0.314697;0.648964;0.289410;-0.637055;0.298743
28744;9.853447;-0.005166;0.142552;-0.001035;0.026169;-0.008150;-0.710693;-0.370605;-0.318604;0.648983;0.289463;-0.636951;0.298874
28745;9.834034;-0.046922;0.184555;0.004775;0.031976;-0.012404;-0.722656;-0.361816;-0.317871;0.649146;0.289579;-0.636697;0.298950
28746;9.836995;-0.053713;0.220783;0.007658;0.027862;-0.015458;-0.713867;-0.364746;-0.318604;0.649209;0.289573;-0.636591;0.299044
28747;9.853405;-0.008529;0.243091;0.000536;0.030686;-0.020644;-0.716797;-0.365723;-0.323730;0.649373;0.289609;-0.636403;0.299053
28748;9.849661;-0.015435;0.177225;-0.008784;0.031837;-0.014720;-0.723389;-0.356689;-0.325195;0.649601;0.289477;-0.636255;0.299000
28749;9.826462;-0.004080;0.146299;-0.002546;0.033897;-0.016109;-0.717773;-0.362549;-0.317871;0.649814;0.289193;-0.636185;0.298962
28750;9.811711;-0.038724;0.169461;0.009938;0.029547;-0.016510;-0.716064;-0.352783;-0.318848;0.649886;0.289252;-0.636031;0.299075
28751;9.833485;-0.030949;0.214744;0.009737;0.028653;-0.015051;-0.714355;-0.367188;-0.326172;0.649982;0.289124;-0.635956;0.299151
28752;9.845800;-0.025195;0.212251;0.002163;0.027435;-0.015766;-0.713135;-0.361084;-0.323730;0.650189;0.289073;-0.635782;0.299119
28753;9.832068;-0.012171;0.227645;-0.003799;0.022986;-0.011649;-0.717773;-0.358643;-0.315186;0.650347;0.288933;-0.635699;0.299087
28754;9.813135;-0.024298;0.222054;-0.005167;0.021233;-0.014655;-0.713867;-0.360596;-0.319092;0.650350;0.288933;-0.635662;0.299159
28755;9.834396;-0.035676;0.226406;-0.003626;0.021271;-0.013986;-0.711914;-0.362061;-0.327148;0.650426;0.288901;-0.635590;0.299179
28756;9.862650;-0.006908;0.200846;-0.006878;0.022899;-0.012964;-0.717285;-0.363770;-0.322021;0.650640;0.288715;-0.635500;0.299084
28757;9.864238;0.000004;0.239930;0.000464;0.020625;-0.011679;-0.720215;-0.369141;-0.322021;0.650705;0.288698;-0.635420;0.299127
28758;9.840188;-0.037382;0.213405;0.004726;0.018271;-0.011724;-0.716797;-0.361572;-0.329102;0.650724;0.288796;-0.635317;0.299213
28759;9.834104;-0.027731;0.239830;0.007125;0.018950;-0.010212;-0.721680;-0.361084;-0.318115;0.650862;0.288646;-0.635249;0.299200
28760;9.827645;-0.036800;0.226513;0.000790;0.017546;-0.013892;-0.714844;-0.371826;-0.329590;0.650830;0.288680;-0.635223;0.299291
28761;9.852433;-0.028054;0.215423;-0.002791;0.019297;-0.014020;-0.713379;-0.362305;-0.331543;0.651004;0.288667;-0.635080;0.299229
28762;9.843443;-0.009338;0.210612;-0.001836;0.019268;-0.008110;-0.713379;-0.360596;-0.324951;0.651200;0.288444;-0.635016;0.299154
28763;9.832225;-0.024696;0.216746;0.001706;0.020433;-0.014606;-0.707275;-0.362305;-0.324707;0.651315;0.288372;-0.634934;0.299147
28764;9.818444;-0.011867;0.231227;0.004907;0.019501;-0.010678;-0.718506;-0.371826;-0.325928;0.651434;0.288341;-0.634817;0.299165
28765;9.834944;-0.030012;0.254291;0.000031;0.016233;-0.009659;-0.715088;-0.366699;-0.326660;0.651489;0.288396;-0.634721;0.299197
28766;9.852108;-0.019075;0.230745;-0.004613;0.016453;-0.009187;-0.716064;-0.364746;-0.322266;0.651584;0.288340;-0.634656;0.299182
28767;9.868358;-0.056255;0.214089;-0.004232;0.018578;-0.009607;-0.713623;-0.357910;-0.327148;0.651624;0.288332;-0.634599;0.299225
28768;9.849767;-0.050193;0.247288;0.003790;0.015718;-0.008494;-0.717773;-0.366699;-0.322998;0.651708;0.288186;-0.634575;0.299232
28769;9.809798;-0.030318;0.279259;0.005033;0.015535;-0.011438;-0.719482;-0.360352;-0.323975;0.651708;0.288268;-0.634500;0.299313
28770;9.814542;-0.022187;0.262676;0.004026;0.016256;-0.012402;-0.720459;-0.363525;-0.322266;0.651725;0.288231;-0.634474;0.299365
28771;9.842862;0.006260;0.236327;-0.000649;0.016823;-0.009466;-0.708008;-0.365479;-0.325928;0.651718;0.288231;-0.634447;0.299440
28772;9.844111;-0.006141;0.234697;-0.001886;0.014055;-0.009888;-0.713379;-0.365479;-0.321777;0.651812;0.288219;-0.634362;0.299426
28773;9.860615;-0.024320;0.256874;0.002529;0.010348;-0.009808;-0.714111;-0.361572;-0.329102;0.651790;0.288304;-0.634315;0.299491
28774;9.806700;-0.012482;0.259255;0.006143;0.008251;-0.012139;-0.716797;-0.364014;-0.337158;0.651848;0.288244;-0.634293;0.299468
28775;9.814274;-0.013377;0.273079;0.001728;0.011956;-0.012216;-0.711914;-0.360840;-0.322754;0.652017;0.288063;-0.634251;0.299366
28776;9.837653;-0.009821;0.225417;-0.002766;0.010811;-0.011630;-0.715820;-0.361084;-0.325439;0.652034;0.288049;-0.634236;0.299372
28777;9.845226;-0.010721;0.239356;-0.005842;0.010722;-0.012964;-0.715088;-0.360596;-0.323975;0.652074;0.287982;-0.634242;0.299338
28778;9.847854;-0.036656;0.232601;-0.007435;0.008428;-0.012066;-0.716064;-0.359131;-0.322998;0.652087;0.287928;-0.634267;0.299308
28779;9.833213;-0.071875;0.252102;-0.004422;0.011777;-0.014879;-0.716064;-0.362061;-0.318115;0.652102;0.287890;-0.634274;0.299297
28780;9.827821;-0.013394;0.270677;-0.000101;0.011684;-0.016483;-0.715332;-0.359619;-0.329346;0.652044;0.288011;-0.634247;0.299364
28781;9.811211;0.008787;0.252511;0.006223;0.013099;-0.012783;-0.708984;-0.358154;-0.325928;0.652118;0.287920;-0.634219;0.299350
28782;9.851259;0.011366;0.264957;0.009416;0.012177;-0.008857;-0.716553;-0.356201;-0.327637;0.652161;0.287869;-0.634182;0.299384
28783;9.852502;-0.020159;0.223000;0.002496;0.010693;-0.007323;-0.717529;-0.363525;-0.331543;0.652191;0.287714;-0.634220;0.299388
28784;9.867659;-0.024763;0.249385;0.000298;0.013841;-0.006911;-0.712891;-0.369873;-0.320557;0.652274;0.287591;-0.634195;0.299377
28785;9.835101;-0.027043;0.253651;0.001243;0.016380;-0.010090;-0.711670;-0.363037;-0.333252;0.652253;0.287769;-0.634080;0.299496
28786;9.839140;-0.048063;0.283324;0.003683;0.013768;-0.014406;-0.713867;-0.359619;-0.320557;0.652394;0.287681;-0.634007;0.299428
28787;9.842580;-0.044435;0.230770;0.001085;0.012192;-0.014478;-0.712891;-0.362793;-0.335449;0.652367;0.287734;-0.633986;0.299480
28788;9.847388;-0.017379;0.253604;0.000029;0.016208;-0.009609;-0.708984;-0.360596;-0.330078;0.652534;0.287557;-0.633929;0.299406
28789;9.833500;-0.005027;0.267259;0.003290;0.014589;-0.010612;-0.714355;-0.362793;-0.329102;0.652642;0.287467;-0.633871;0.299382
28790;9.839649;0.007951;0.285898;0.010516;0.013353;-0.011893;-0.717041;-0.356689;-0.325439;0.652683;0.287475;-0.633805;0.299425
28791;9.808464;-0.007666;0.285700;0.012944;0.013690;-0.012837;-0.708252;-0.354736;-0.328857;0.652667;0.287471;-0.633782;0.299510
28792;9.823566;-0.011311;0.312265;0.011200;0.012755;-0.012063;-0.714844;-0.367188;-0.330078;0.652741;0.287374;-0.633751;0.299510
28793;9.822185;-0.013813;0.278908;0.004939;0.013575;-0.017326;-0.718262;-0.362793;-0.327393;0.652812;0.287429;-0.633657;0.299499
28794;9.864388;0.004723;0.240852;0.003102;0.010745;-0.012530;-0.714600;-0.358643;-0.335449;0.652812;0.287437;-0.633638;0.299531
28795;9.859463;0.000662;0.261685;0.004469;0.009553;-0.012881;-0.706299;-0.366455;-0.335449;0.652925;0.287269;-0.633638;0.299447
28796;9.843469;-0.020511;0.285501;0.007805;0.012780;-0.014536;-0.718506;-0.363525;-0.337891;0.653087;0.287230;-0.633526;0.299368
28797;9.823383;-0.018692;0.282197;0.013251;0.010966;-0.012576;-0.710693;-0.359375;-0.336426;0.653185;0.287137;-0.633482;0.299337
28798;9.804581;-0.012217;0.314163;0.011829;0.009910;-0.010662;-0.712891;-0.362549;-0.334961;0.653298;0.287003;-0.633448;0.299291
28799;9.841786;0.018402;0.334241;0.013825;0.005878;-0.009628;-0.719727;-0.362061;-0.324219;0.653351;0.286948;-0.633423;0.299281
28800;9.861941;0.001475;0.300364;0.013224;0.000269;-0.008674;-0.707764;-0.353516;-0.331299;0.653199;0.287084;-0.633448;0.299429
28801;9.838429;-0.017521;0.310261;0.013432;0.001154;-0.010111;-0.713867;-0.366455;-0.320557;0.653209;0.287001;-0.633476;0.299426
28802;9.853717;-0.040375;0.295315;0.012426;0.001869;-0.011077;-0.713135;-0.364746;-0.330322;0.653065;0.287250;-0.633439;0.299582
28803;9.855785;-0.004823;0.284050;0.007768;-0.006016;-0.005830;-0.710205;-0.364990;-0.324951;0.653006;0.287271;-0.633486;0.299589
28804;9.859279;0.016282;0.268057;0.007085;-0.005421;-0.005654;-0.710449;-0.353271;-0.328125;0.652902;0.287378;-0.633516;0.299650
28805;9.840690;0.002817;0.257773;0.011733;-0.005630;-0.006098;-0.708740;-0.359131;-0.331299;0.652829;0.287315;-0.633608;0.299675
28806;9.842135;-0.010084;0.252736;0.019131;-0.005621;-0.006341;-0.706543;-0.365234;-0.327637;0.652788;0.287310;-0.633642;0.299698
28807;9.846897;0.016202;0.272089;0.019970;-0.007577;-0.006391;-0.712891;-0.356689;-0.330811;0.652702;0.287447;-0.633637;0.299763
28808;9.828186;0.021760;0.300795;0.020070;-0.011182;-0.004705;-0.716064;-0.358154;-0.329102;0.652602;0.287427;-0.633731;0.299802
28809;9.828245;0.022538;0.298817;0.017797;-0.012881;-0.003637;-0.714600;-0.360352;-0.322754;0.652460;0.287439;-0.633842;0.299865
28810;9.852746;-0.037633;0.249727;0.015794;-0.016942;0.000136;-0.715088;-0.363037;-0.324707;0.652225;0.287564;-0.633961;0.300005
28811;9.867988;-0.042479;0.271685;0.014440;-0.013221;-0.008579;-0.713379;-0.367432;-0.330811;0.652063;0.287706;-0.634032;0.300069
28812;9.836154;0.003183;0.264321;0.012013;-0.013559;-0.007634;-0.715332;-0.362305;-0.322510;0.651992;0.287771;-0.634090;0.300041
28813;9.822345;0.015143;0.273137;0.008049;-0.013947;-0.007361;-0.715576;-0.362061;-0.329346;0.651819;0.287892;-0.634187;0.300095
28814;9.796197;0.004441;0.249173;0.004886;-0.015932;-0.004679;-0.718994;-0.360840;-0.323730;0.651723;0.287863;-0.634319;0.300052
28815;9.828741;0.009183;0.244949;0.008372;-0.014068;-0.006215;-0.718506;-0.359619;-0.321777;0.651551;0.287934;-0.634440;0.300102
28816;9.808124;-0.019315;0.283686;0.010903;-0.017334;-0.005467;-0.718506;-0.361816;-0.333740;0.651337;0.288036;-0.634578;0.300175
28817;9.828321;-0.036590;0.246529;0.009609;-0.016861;-0.010035;-0.713135;-0.363770;-0.325439;0.651288;0.287980;-0.634703;0.300071
28818;9.841431;-0.002830;0.190250;0.006822;-0.016723;-0.007772;-0.715820;-0.366455;-0.321533;0.651171;0.288050;-0.634803;0.300046
28819;9.876757;-0.006625;0.217427;0.006681;-0.012762;-0.007001;-0.713867;-0.354980;-0.330078;0.651018;0.288196;-0.634872;0.300093
28820;9.854754;-0.021017;0.260724;0.004255;-0.013100;-0.006055;-0.708496;-0.370361;-0.320557;0.650983;0.288047;-0.635022;0.299995
28821;9.862473;-0.041528;0.231359;0.002803;-0.011268;-0.010749;-0.712158;-0.369385;-0.324707;0.650886;0.288241;-0.635036;0.299990
28822;9.836775;-0.003586;0.201761;0.008021;-0.002905;-0.008815;-0.716064;-0.368896;-0.325928;0.650848;0.288352;-0.635018;0.300003
28823;9.824355;-0.005728;0.208479;0.007470;-0.000708;-0.005165;-0.714844;-0.357910;-0.322998;0.650810;0.288408;-0.635016;0.300037
28824;9.825794;-0.018908;0.204196;0.002977;-0.001860;-0.004593;-0.711182;-0.363525;-0.321533;0.650753;0.288354;-0.635091;0.300052
28825;9.839622;-0.009581;0.232178;0.006928;-0.004075;-0.005758;-0.717285;-0.361328;-0.312744;0.650678;0.288421;-0.635119;0.300091
28826;9.850630;0.008843;0.228428;0.008657;-0.005744;-0.007419;-0.718750;-0.372070;-0.331055;0.650471;0.288613;-0.635176;0.300236
28827;9.874092;0.011392;0.178361;0.004719;-0.000928;-0.005362;-0.713867;-0.364014;-0.328613;0.650482;0.288627;-0.635165;0.300223
28828;9.851199;0.020555;0.142295;0.014259;0.007348;-0.005021;-0.708008;-0.367920;-0.321533;0.650516;0.288601;-0.635121;0.300266
28829;9.816735;0.002565;0.196103;0.027330;0.009042;-0.003848;-0.711426;-0.365723;-0.321289;0.650474;0.288781;-0.634996;0.300449
28830;9.805682;0.005377;0.239294;0.030885;-0.000506;-0.006360;-0.720947;-0.363770;-0.324707;0.650364;0.288990;-0.634933;0.300620
28831;9.797541;-0.019675;0.273257;0.022740;-0.004769;-0.005262;-0.718506;-0.363770;-0.322754;0.650243;0.289086;-0.634959;0.300733
28832;9.794732;-0.009861;0.241047;0.012265;-0.004885;-0.006361;-0.710449;-0.369629;-0.321777;0.650144;0.289153;-0.635002;0.300792
28833;9.847286;-0.004284;0.243097;0.005850;-0.010817;-0.006925;-0.721924;-0.358887;-0.323242;0.650055;0.289286;-0.635029;0.300800
28834;9.870284;-0.030594;0.237934;0.009911;-0.016634;-0.006387;-0.716064;-0.364990;-0.320557;0.649898;0.289297;-0.635183;0.300803
28835;9.856528;-0.037640;0.206777;0.019449;-0.016534;-0.011167;-0.712891;-0.363037;-0.324951;0.649729;0.289491;-0.635243;0.300855
28836;9.835085;-0.022723;0.203135;0.021975;-0.014228;-0.006176;-0.718018;-0.360840;-0.327148;0.649617;0.289583;-0.635297;0.300894
28837;9.810749;0.000754;0.168811;0.026730;-0.007354;-0.008866;-0.722412;-0.355713;-0.316162;0.649539;0.289640;-0.635325;0.300949
28838;9.809316;0.015883;0.171850;0.025820;-0.004670;-0.003905;-0.721436;-0.365723;-0.317871;0.649345;0.289730;-0.635400;0.301122
28839;9.802702;-0.023391;0.201239;0.022529;-0.008261;-0.004687;-0.718506;-0.362061;-0.316650;0.649159;0.289913;-0.635435;0.301274
28840;9.842865;-0.021540;0.209245;0.017395;-0.019868;-0.002439;-0.713135;-0.367676;-0.320068;0.648927;0.290048;-0.635566;0.301368
28841;9.853880;-0.023034;0.164153;0.016453;-0.011708;-0.003212;-0.722900;-0.366455;-0.321045;0.648797;0.290186;-0.635598;0.301444
28842;9.855354;-0.036623;0.158759;0.022508;-0.005294;-0.001341;-0.721436;-0.365234;-0.322266;0.648653;0.290301;-0.635622;0.301593
28843;9.824356;-0.034693;0.195457;0.028417;-0.003099;-0.003820;-0.725342;-0.372314;-0.317627;0.648534;0.290424;-0.635616;0.301744
28844;9.852088;-0.035973;0.212086;0.028407;-0.005708;-0.004695;-0.710449;-0.361328;-0.319336;0.648339;0.290695;-0.635591;0.301955
28845;9.830596;-0.021654;0.210203;0.022589;-0.003429;-0.005356;-0.705811;-0.364014;-0.312012;0.648270;0.290766;-0.635593;0.302031
28846;9.822951;-0.018033;0.197511;0.015715;-0.002677;-0.005418;-0.719971;-0.358154;-0.313721;0.648174;0.290910;-0.635582;0.302122
28847;9.832451;-0.005136;0.158431;0.014333;-0.004091;-0.005957;-0.707275;-0.364990;-0.316895;0.648042;0.290951;-0.635663;0.302195
28848;9.822968;-0.035236;0.157071;0.014052;-0.001741;-0.008673;-0.719238;-0.364746;-0.315186;0.648003;0.291058;-0.635636;0.302233
28849;9.827714;-0.027744;0.137854;0.012040;0.002286;-0.009739;-0.722168;-0.367432;-0.321533;0.647928;0.291161;-0.635630;0.302308
28850;9.844488;-0.045520;0.158890;0.005861;0.005049;-0.009095;-0.718018;-0.361084;-0.317627;0.647919;0.291191;-0.635609;0.302340
28851;9.821490;-0.016612;0.162976;0.006769;0.010543;-0.008949;-0.718262;-0.365234;-0.328613;0.647934;0.291161;-0.635594;0.302369
28852;9.827652;-0.003614;0.181039;0.004062;0.012558;-0.010725;-0.717529;-0.361816;-0.319824;0.648054;0.291070;-0.635531;0.302333
28853;9.822890;-0.027283;0.163376;0.001004;0.017663;-0.010311;-0.710938;-0.358398;-0.312988;0.648140;0.290991;-0.635479;0.302332
28854;9.831970;-0.042344;0.174453;0.002015;0.016953;-0.009335;-0.714111;-0.363770;-0.324463;0.648190;0.290941;-0.635442;0.302352
28855;9.853399;-0.034548;0.217603;-0.001071;0.014236;-0.011559;-0.718506;-0.359375;-0.317871;0.648315;0.290847;-0.635385;0.302295
28856;9.833301;-0.033488;0.214773;-0.006610;0.014164;-0.009513;-0.712891;-0.361328;-0.323242;0.648375;0.290728;-0.635394;0.302261
28857;9.833660;-0.003391;0.170340;-0.003858;0.014384;-0.009306;-0.712891;-0.361572;-0.318848;0.648496;0.290592;-0.635363;0.302197
28858;9.859917;-0.009294;0.155059;0.000486;0.019502;-0.009116;-0.718018;-0.369629;-0.321289;0.648592;0.290519;-0.635294;0.302206
28859;9.850437;-0.039250;0.157122;-0.001624;0.016447;-0.007916;-0.716553;-0.370117;-0.319580;0.648659;0.290515;-0.635213;0.302236
28860;9.837980;-0.040903;0.167317;0.001421;0.022014;-0.012291;-0.722412;-0.363037;-0.319824;0.648749;0.290563;-0.635077;0.302284
28861;9.836422;-0.025074;0.175273;-0.003743;0.026667;-0.009796;-0.722412;-0.368896;-0.315430;0.648854;0.290470;-0.634996;0.302317
28862;9.843969;-0.026046;0.191956;-0.008190;0.027746;-0.010802;-0.718018;-0.360840;-0.322754;0.648931;0.290476;-0.634885;0.302381
28863;9.823837;-0.025240;0.191651;-0.008379;0.032079;-0.007590;-0.724365;-0.365234;-0.314697;0.649111;0.290280;-0.634793;0.302374
28864;9.856193;-0.019919;0.195298;0.000608;0.034384;-0.008694;-0.719238;-0.359375;-0.314941;0.649182;0.290274;-0.634659;0.302509
28865;9.874325;-0.051590;0.217250;0.002181;0.031460;-0.011346;-0.725342;-0.365479;-0.319824;0.649273;0.290217;-0.634558;0.302581
28866;9.888439;-0.012479;0.204442;-0.005374;0.035400;-0.010368;-0.717529;-0.365479;-0.327637;0.649399;0.290147;-0.634425;0.302656
28867;9.797292;-0.030719;0.192747;-0.005115;0.041109;-0.012479;-0.719727;-0.367432;-0.326904;0.649649;0.290007;-0.634226;0.302670
28868;9.765907;-0.027377;0.236385;-0.006010;0.038219;-0.011745;-0.711670;-0.362793;-0.323242;0.649860;0.289904;-0.634041;0.302703
28869;9.821320;-0.048479;0.237870;-0.003909;0.033454;-0.015578;-0.711426;-0.363525;-0.323975;0.650062;0.289814;-0.633885;0.302685
28870;9.833648;-0.042719;0.236144;-0.003269;0.030623;-0.014172;-0.708984;-0.363525;-0.317383;0.650244;0.289733;-0.633740;0.302673
28871;9.834188;-0.011961;0.194459;-0.002097;0.031159;-0.012177;-0.712646;-0.358887;-0.327393;0.650379;0.289705;-0.633598;0.302708
28872;9.838303;-0.032556;0.227243;-0.004478;0.033050;-0.012805;-0.714111;-0.364502;-0.330811;0.650597;0.289519;-0.633479;0.302664
28873;9.852197;-0.040938;0.221585;-0.007022;0.031092;-0.015337;-0.719482;-0.362549;-0.337158;0.650822;0.289388;-0.633334;0.302612
28874;9.842976;-0.021886;0.218640;-0.007705;0.034285;-0.014270;-0.707764;-0.366211;-0.321533;0.651086;0.289169;-0.633194;0.302546
28875;9.861292;-0.005047;0.233465;-0.004155;0.032927;-0.011635;-0.716309;-0.371826;-0.322998;0.651249;0.289135;-0.633027;0.302576
28876;9.823779;-0.013063;0.259450;-0.004474;0.030433;-0.013659;-0.716797;-0.369385;-0.327881;0.651368;0.289182;-0.632854;0.302637
28877;9.823660;-0.010890;0.264017;-0.007274;0.025369;-0.013201;-0.710938;-0.358643;-0.330078;0.651499;0.289156;-0.632728;0.302643
28878;9.821776;-0.042709;0.279219;-0.007273;0.022765;-0.014087;-0.714600;-0.364990;-0.328369;0.651676;0.288985;-0.632668;0.302550
28879;9.846622;-0.033603;0.269000;-0.010181;0.021289;-0.015317;-0.715576;-0.361084;-0.317627;0.651813;0.288909;-0.632591;0.302489
28880;9.853075;-0.039044;0.249428;-0.004471;0.022618;-0.016306;-0.713867;-0.359375;-0.331787;0.651871;0.288903;-0.632534;0.302489
28881;9.831404;-0.023189;0.251842;0.005842;0.024123;-0.015253;-0.710693;-0.372314;-0.333740;0.652018;0.288811;-0.632433;0.302472
28882;9.828112;0.007070;0.263438;0.007805;0.020482;-0.011746;-0.715576;-0.364502;-0.323730;0.652133;0.288868;-0.632261;0.302530
28883;9.824655;-0.010720;0.282064;0.009602;0.021042;-0.014942;-0.711670;-0.361328;-0.325439;0.652177;0.288933;-0.632153;0.302599
28884;9.826180;-0.022651;0.281096;0.008075;0.015536;-0.009934;-0.713135;-0.366455;-0.332520;0.652216;0.288920;-0.632100;0.302637
28885;9.812724;-0.029601;0.255022;0.006912;0.014993;-0.011921;-0.708740;-0.360107;-0.328613;0.652291;0.288928;-0.632008;0.302661
28886;9.831021;-0.012951;0.267034;0.009132;0.017060;-0.010511;-0.712646;-0.373535;-0.331299;0.652371;0.288879;-0.631941;0.302676
28887;9.858418;-0.012700;0.287587;0.012835;0.017197;-0.014331;-0.717773;-0.354736;-0.328613;0.652428;0.289023;-0.631772;0.302766
28888;9.833368;-0.017223;0.304343;0.016588;0.019323;-0.012236;-0.707275;-0.356689;-0.333252;0.652477;0.288958;-0.631729;0.302813
28889;9.833285;-0.015418;0.307116;0.012520;0.014463;-0.008888;-0.717529;-0.364990;-0.326416;0.652571;0.288849;-0.631686;0.302805
28890;9.813253;-0.014622;0.303688;0.016124;0.010143;-0.009596;-0.714355;-0.356445;-0.334229;0.652530;0.288940;-0.631634;0.302914
28891;9.819066;-0.001990;0.321232;0.016656;0.005467;-0.004202;-0.717041;-0.358643;-0.332764;0.652531;0.288850;-0.631657;0.302950
28892;9.813195;-0.012502;0.305629;0.012378;0.002573;-0.006003;-0.713623;-0.365723;-0.328857;0.652506;0.288797;-0.631694;0.302976
28893;9.839788;-0.018819;0.288462;0.011317;0.003649;-0.004528;-0.715332;-0.370605;-0.328125;0.652463;0.288837;-0.631686;0.303049
28894;9.843886;-0.040476;0.316855;0.014118;0.006106;-0.005855;-0.710693;-0.358887;-0.327393;0.652411;0.288954;-0.631629;0.303167
28895;9.823898;-0.040293;0.312126;0.013912;0.002632;-0.005314;-0.708008;-0.365234;-0.335693;0.652372;0.288942;-0.631654;0.303210
28896;9.816473;0.011076;0.293192;0.007185;0.007203;-0.003528;-0.712646;-0.357666;-0.323730;0.652429;0.288875;-0.631624;0.303215
28897;9.858025;-0.000767;0.301025;0.000262;0.003098;-0.002987;-0.707764;-0.371826;-0.335205;0.652385;0.288798;-0.631700;0.303224
28898;9.862941;-0.042350;0.289696;-0.000266;0.002336;-0.002696;-0.714111;-0.364502;-0.330566;0.652422;0.288776;-0.631678;0.303213
28899;9.861290;-0.028019;0.293924;0.005711;0.001333;-0.000975;-0.714355;-0.361572;-0.327881;0.652383;0.288746;-0.631710;0.303257
28900;9.839663;-0.014421;0.292950;0.010785;0.005486;-0.003339;-0.719971;-0.362793;-0.330322;0.652345;0.288736;-0.631720;0.303326
28901;9.832983;-0.006122;0.316945;0.005861;0.005181;0.000933;-0.717285;-0.361084;-0.326660;0.652299;0.288680;-0.631756;0.303405
28902;9.820460;-0.009602;0.324894;-0.000649;0.008022;0.000393;-0.708984;-0.367188;-0.328369;0.652273;0.288592;-0.631799;0.303455
28903;9.865282;-0.049782;0.325480;-0.007258;0.009241;-0.003610;-0.711670;-0.354492;-0.326904;0.652318;0.288530;-0.631787;0.303441
28904;9.859402;-0.060379;0.311016;-0.011966;0.012638;-0.007342;-0.711670;-0.363037;-0.321777;0.652396;0.288331;-0.631842;0.303349
28905;9.847768;-0.034174;0.273198;-0.011122;0.013291;-0.006489;-0.713135;-0.360352;-0.320801;0.652425;0.288270;-0.631844;0.303340
28906;9.811101;0.010054;0.323642;-0.002918;0.009157;-0.005139;-0.711426;-0.356689;-0.321533;0.652399;0.288239;-0.631871;0.303369
28907;9.805972;-0.043124;0.351521;-0.002596;0.006447;-0.004891;-0.716797;-0.362793;-0.325195;0.652375;0.288166;-0.631931;0.303364
28908;9.829264;-0.021471;0.342900;-0.004289;0.007740;-0.005699;-0.710205;-0.366211;-0.320801;0.652357;0.288134;-0.631955;0.303383
28909;9.839228;-0.056642;0.313084;-0.004128;0.006385;-0.005575;-0.718018;-0.359131;-0.327148;0.652322;0.288175;-0.631953;0.303423
28910;9.842577;-0.035781;0.298646;-0.003806;0.003675;-0.005327;-0.712402;-0.359375;-0.330078;0.652298;0.288096;-0.632024;0.303406
28911;9.862516;-0.034061;0.304882;-0.000000;0.005433;-0.005676;-0.718018;-0.359375;-0.333740;0.652315;0.288010;-0.632058;0.303378
28912;9.837505;-0.039761;0.319404;-0.003908;0.004655;-0.007896;-0.708984;-0.358398;-0.335205;0.652345;0.287897;-0.632107;0.303317
28913;9.831726;-0.002071;0.296443;-0.008776;0.003972;-0.006074;-0.713135;-0.355713;-0.333252;0.652427;0.287716;-0.632165;0.303193
28914;9.826638;-0.055332;0.323717;-0.006086;0.004579;-0.003398;-0.713379;-0.361084;-0.335205;0.652471;0.287527;-0.632244;0.303111
28915;9.844162;-0.045476;0.297899;-0.002529;-0.001962;-0.002553;-0.718018;-0.367676;-0.326660;0.652474;0.287418;-0.632317;0.303057
28916;9.831676;-0.048272;0.304567;0.013022;-0.000238;-0.004595;-0.716553;-0.364014;-0.327881;0.652364;0.287554;-0.632308;0.303184
28917;9.823314;-0.025330;0.331471;0.019056;-0.001611;-0.005317;-0.708008;-0.372070;-0.334473;0.652256;0.287675;-0.632308;0.303301
28918;9.831557;-0.021201;0.378861;0.017745;-0.003404;-0.008322;-0.709473;-0.365479;-0.331787;0.652217;0.287832;-0.632244;0.303369
28919;9.835846;-0.019556;0.323637;0.011285;-0.003775;-0.004740;-0.711182;-0.365967;-0.334229;0.652170;0.287884;-0.632252;0.303403
28920;9.910817;-0.046086;0.289165;0.012196;-0.006098;-0.007226;-0.715088;-0.366455;-0.325439;0.652124;0.287949;-0.632263;0.303418
28921;9.945898;-0.073976;0.242812;0.019414;-0.014729;-0.008629;-0.704346;-0.359619;-0.324219;0.651947;0.288155;-0.632313;0.303500
28922;10.008433;-0.055216;0.204931;0.031623;-0.028862;-0.011057;-0.715576;-0.357422;-0.330322;0.651722;0.288388;-0.632425;0.303528
28923;10.115089;-0.033952;0.121712;0.051955;-0.033518;-0.012676;-0.717529;-0.364502;-0.325195;0.651428;0.288694;-0.632537;0.303634
28924;10.131042;-0.079900;0.027411;0.081907;-0.024998;-0.031843;-0.708252;-0.361816;-0.323975;0.651110;0.289353;-0.632445;0.303881
28925;10.186138;-0.149591;-0.006690;0.107014;-0.007150;-0.048051;-0.707031;-0.363525;-0.321289;0.650906;0.290139;-0.632158;0.304165
28926;10.104462;-0.034120;-0.039827;0.113081;0.007088;-0.060710;-0.717041;-0.356201;-0.330078;0.650784;0.291010;-0.631743;0.304457
28927;10.008387;0.094454;-0.061547;0.100323;0.006147;-0.080707;-0.707275;-0.365723;-0.326172;0.650772;0.291768;-0.631381;0.304507
28928;9.928009;0.178155;-0.016612;0.117922;-0.003423;-0.089138;-0.712891;-0.370605;-0.318359;0.650689;0.292793;-0.630942;0.304612
28929;9.857425;0.129000;0.134252;0.204154;-0.002967;-0.098177;-0.714111;-0.368164;-0.322510;0.650343;0.294431;-0.630251;0.305200
28930;9.758390;0.023328;0.205309;0.291968;0.000062;-0.105276;-0.717285;-0.367676;-0.320557;0.649850;0.296483;-0.629329;0.306166
28931;9.717150;0.081835;0.150713;0.351751;0.002955;-0.118212;-0.700195;-0.374268;-0.316650;0.649241;0.298890;-0.628228;0.307376
28932;9.642153;0.231581;0.079463;0.377974;-0.000369;-0.117089;-0.705078;-0.386230;-0.316650;0.648589;0.301465;-0.627027;0.308689
28933;9.593044;0.454289;0.088876;0.414688;0.001682;-0.112714;-0.715332;-0.377686;-0.309570;0.647818;0.304287;-0.625680;0.310269
28934;9.422420;0.633392;0.075212;0.473081;-0.001000;-0.094829;-0.703125;-0.383789;-0.312012;0.646773;0.307261;-0.624324;0.312243
28935;9.179792;0.770943;-0.025822;0.528661;-0.017638;-0.054722;-0.705078;-0.387939;-0.308105;0.645465;0.310329;-0.622971;0.314607
28936;8.855726;0.824667;-0.126785;0.520757;-0.037093;0.024588;-0.708496;-0.396729;-0.302002;0.643845;0.313003;-0.621937;0.317314
28937;9.081885;0.856446;-0.270572;0.397144;-0.051556;0.104982;-0.706299;-0.384033;-0.305176;0.642213;0.314720;-0.621472;0.319823
28938;9.533476;0.809470;-0.475115;0.253126;-0.086352;0.187459;-0.709961;-0.386963;-0.293457;0.640629;0.315135;-0.621868;0.321813
28939;10.036989;0.528049;-0.537560;0.154434;-0.133618;0.255987;-0.715576;-0.399414;-0.294189;0.638792;0.314919;-0.622928;0.323622
28940;10.345409;0.271141;-0.537741;0.101304;-0.185595;0.302102;-0.711914;-0.386230;-0.286865;0.636692;0.314430;-0.624450;0.325300
28941;10.379084;-0.050858;-0.265728;0.061887;-0.228823;0.322646;-0.716553;-0.390625;-0.289551;0.634412;0.313673;-0.626401;0.326729
28942;10.022013;-0.307185;0.130368;0.015893;-0.244251;0.328160;-0.718506;-0.380615;-0.279297;0.632179;0.312708;-0.628529;0.327896
28943;9.352257;-0.332737;0.666861;-0.040734;-0.247987;0.306422;-0.718506;-0.374512;-0.284668;0.630085;0.311567;-0.630795;0.328659
28944;8.591563;-0.349929;1.252052;-0.149437;-0.226548;0.246224;-0.731689;-0.375244;-0.289062;0.628618;0.310013;-0.633097;0.328511
28945;8.167203;-0.348820;1.309036;-0.306244;-0.117726;0.140061;-0.726074;-0.373291;-0.292236;0.628412;0.307907;-0.634963;0.327282
28946;8.452309;-0.330721;0.688569;-0.406676;0.036017;-0.008215;-0.724854;-0.373047;-0.294922;0.629724;0.305610;-0.635898;0.325091
28947;9.667257;-0.279877;-0.097704;-0.385751;0.159141;-0.125615;-0.728760;-0.373779;-0.288818;0.631947;0.303719;-0.635815;0.322703
28948;10.440051;-0.454118;-0.752147;-0.284366;0.131725;-0.150279;-0.722168;-0.367188;-0.290771;0.633735;0.302665;-0.635533;0.320736
28949;10.588197;-0.734807;-1.314443;-0.152317;0.078959;-0.121764;-0.724609;-0.377686;-0.298096;0.634843;0.302242;-0.635272;0.319458
28950;10.508990;-1.042345;-1.693231;-0.048511;0.027677;-0.080380;-0.727295;-0.368652;-0.291748;0.635327;0.302325;-0.635073;0.318812
28951;10.667667;-1.111757;-1.932461;0.018024;-0.071015;-0.048203;-0.726807;-0.365967;-0.294678;0.634975;0.302837;-0.635347;0.318482
28952;11.002180;-0.849556;-2.337036;0.026009;-0.191906;-0.011631;-0.724609;-0.368896;-0.293457;0.633893;0.303461;-0.636345;0.318052
28953;11.273536;-0.725657;-2.411141;0.000487;-0.238323;0.038199;-0.727295;-0.367920;-0.288818;0.632515;0.303812;-0.637770;0.317606
28954;11.011934;-0.727927;-2.201514;-0.064714;-0.198868;0.085011;-0.727539;-0.363770;-0.292969;0.631368;0.303474;-0.639282;0.317169
28955;10.548170;-0.772398;-1.960023;-0.127354;-0.121938;0.091877;-0.736328;-0.365479;-0.288574;0.630814;0.302497;-0.640582;0.316583
28956;10.000084;-0.767021;-1.425472;-0.155825;-0.026815;0.080897;-0.732178;-0.361084;-0.303467;0.630811;0.301246;-0.641421;0.316082
28957;9.414373;-0.743924;-1.022270;-0.154667;0.065092;0.058646;-0.729492;-0.364014;-0.291748;0.631462;0.299745;-0.641721;0.315599
28958;9.020473;-0.802120;-0.815458;-0.134109;0.139859;0.040028;-0.734619;-0.351562;-0.293701;0.632441;0.298367;-0.641517;0.315359
28959;8.809020;-0.895925;-0.689830;-0.106240;0.184535;0.029059;-0.730469;-0.359131;-0.300293;0.633576;0.297037;-0.641007;0.315375
28960;8.891900;-1.061380;-0.707931;-0.075740;0.214856;0.020941;-0.736084;-0.360352;-0.306152;0.634866;0.295835;-0.640212;0.315525
28961;9.058362;-1.219429;-0.842703;-0.017931;0.233972;0.017532;-0.728271;-0.357910;-0.302246;0.636113;0.294915;-0.639149;0.316029
28962;9.210828;-1.497829;-1.107402;0.064875;0.242135;0.008388;-0.731445;-0.362793;-0.308350;0.637205;0.294480;-0.637806;0.316946
28963;9.283520;-1.641172;-1.275922;0.144963;0.228419;0.005232;-0.723633;-0.355225;-0.313721;0.638043;0.294528;-0.636306;0.318227
28964;9.261185;-1.570221;-1.435834;0.200584;0.184385;-0.011809;-0.723389;-0.365723;-0.309326;0.638593;0.294995;-0.634864;0.319569
28965;9.228977;-1.314873;-1.546463;0.227783;0.145341;-0.047111;-0.722412;-0.364014;-0.304443;0.638942;0.295970;-0.633458;0.320760
28966;9.106720;-0.915330;-1.584265;0.227495;0.136418;-0.095129;-0.728027;-0.363525;-0.308838;0.639327;0.297247;-0.631985;0.321713
28967;9.033807;-0.585339;-1.600168;0.195816;0.132065;-0.140603;-0.719482;-0.373047;-0.309570;0.639875;0.298589;-0.630510;0.322277
28968;9.067562;-0.424692;-1.592418;0.165212;0.113278;-0.176659;-0.708740;-0.368652;-0.302979;0.640547;0.299994;-0.629122;0.322349
28969;9.141712;-0.474791;-1.543256;0.139973;0.091326;-0.204041;-0.717041;-0.367676;-0.312988;0.641220;0.301465;-0.627861;0.322097
28970;9.242274;-0.488205;-1.283919;0.117381;0.076088;-0.214716;-0.714600;-0.375244;-0.305176;0.641900;0.302863;-0.626717;0.321659
28971;9.273734;-0.556609;-1.081752;0.107756;0.040173;-0.201456;-0.713135;-0.381104;-0.302002;0.642341;0.304304;-0.625820;0.321164
28972;9.253905;-0.713570;-1.072179;0.092583;0.014397;-0.178182;-0.716309;-0.387207;-0.310791;0.642611;0.305640;-0.625157;0.320646
28973;9.236261;-0.907813;-1.258660;0.097425;0.015364;-0.162285;-0.710205;-0.378174;-0.308838;0.642881;0.306858;-0.624518;0.320186
28974;9.309542;-0.933803;-1.423706;0.143526;0.008344;-0.136235;-0.705811;-0.381104;-0.303223;0.642907;0.308183;-0.623868;0.320130
28975;9.511758;-0.914837;-1.764904;0.189069;-0.026793;-0.089065;-0.708252;-0.384277;-0.306152;0.642493;0.309626;-0.623405;0.320470
28976;9.773060;-1.008760;-2.230668;0.186127;-0.070516;-0.046891;-0.713867;-0.391602;-0.303711;0.641765;0.310921;-0.623297;0.320885
28977;10.016196;-1.215258;-3.016081;0.158298;-0.105771;-0.019125;-0.708984;-0.390381;-0.293457;0.640838;0.312045;-0.623522;0.321209
28978;10.807540;-1.386034;-3.187850;0.110964;-0.113988;-0.029434;-0.708496;-0.393066;-0.295898;0.639981;0.313039;-0.623887;0.321241
28979;13.593047;-1.025882;-2.070637;0.028203;-0.024122;0.003833;-0.713379;-0.390137;-0.297607;0.639761;0.313128;-0.624094;0.321190
28980;15.532452;-0.094594;-1.046676;-0.220866;-0.093273;0.132918;-0.720215;-0.388428;-0.302246;0.639465;0.311400;-0.625672;0.320389
28981;16.102731;1.403368;-0.747521;-0.464055;-0.025759;0.145628;-0.718018;-0.378418;-0.307617;0.640118;0.308107;-0.627568;0.318554
28982;13.670629;1.418077;0.090482;-0.775558;-0.011395;0.070150;-0.722900;-0.370605;-0.307861;0.641844;0.303458;-0.630009;0.314703
28983;11.092186;0.612064;0.331548;-0.884521;-0.127145;-0.132247;-0.729980;-0.371582;-0.314209;0.643668;0.299648;-0.632793;0.308990
28984;10.456220;-0.012870;1.163012;-0.603244;-0.232959;-0.214603;-0.717529;-0.367920;-0.316406;0.644410;0.298050;-0.635184;0.304044
28985;9.403200;-0.991217;1.187471;-0.297575;-0.273538;-0.200810;-0.719482;-0.368408;-0.314209;0.644195;0.298037;-0.637054;0.300581
28986;8.750979;-1.322920;1.562868;-0.103783;-0.054105;-0.179845;-0.721436;-0.372314;-0.308838;0.644589;0.298420;-0.637300;0.298831
28987;8.368873;-1.156189;2.485529;0.140680;0.201452;-0.145922;-0.705322;-0.366211;-0.307617;0.645595;0.299374;-0.635627;0.299266
28988;8.136386;-0.558907;2.692439;0.303821;0.369937;-0.136636;-0.705078;-0.377441;-0.310547;0.647086;0.300688;-0.632664;0.301002
28989;8.524814;0.342041;2.676257;0.279531;0.478424;-0.154337;-0.703613;-0.382080;-0.315186;0.649262;0.301693;-0.629119;0.302737
28990;9.050959;1.066024;2.393274;0.071449;0.378768;-0.142282;-0.702881;-0.379395;-0.329346;0.651398;0.301759;-0.626653;0.303196
28991;9.298201;1.079798;1.780242;-0.210305;0.143675;-0.095518;-0.702148;-0.388184;-0.308105;0.652947;0.300539;-0.626307;0.301787
28992;9.652313;0.710298;0.867034;-0.428189;-0.068074;-0.077587;-0.710449;-0.378662;-0.331299;0.653714;0.298864;-0.627629;0.299032
28993;9.893524;0.498312;0.483563;-0.481879;-0.166723;-0.107139;-0.709961;-0.375488;-0.321289;0.654261;0.297088;-0.629584;0.295475
28994;9.908693;0.315938;0.346671;-0.448038;-0.182649;-0.125520;-0.705811;-0.369629;-0.322510;0.654584;0.295757;-0.631452;0.292089
28995;9.763542;0.083440;0.141984;-0.414879;-0.128291;-0.110145;-0.701904;-0.377930;-0.327393;0.655085;0.294345;-0.632984;0.289060
28996;9.683605;-0.160400;0.025642;-0.375223;-0.040443;-0.106919;-0.701172;-0.368896;-0.333496;0.656016;0.292851;-0.633958;0.286319
28997;9.605296;-0.270790;-0.160937;-0.332091;0.031743;-0.127250;-0.707275;-0.361328;-0.324219;0.657282;0.291461;-0.634395;0.283856
28998;9.342453;-0.181772;-0.309494;-0.264010;0.087697;-0.167515;-0.703125;-0.372314;-0.331787;0.658615;0.290706;-0.634217;0.281932
28999;9.076180;0.076032;-0.484444;-0.221743;0.145079;-0.186740;-0.697021;-0.371582;-0.340332;0.660275;0.290074;-0.633592;0.280100
29000;8.947600;0.414731;-0.477036;-0.229786;0.176148;-0.189651;-0.698486;-0.369873;-0.336670;0.662186;0.289237;-0.632830;0.278168
29001;9.031979;0.763355;-0.575685;-0.272618;0.183210;-0.203813;-0.688965;-0.371582;-0.343018;0.664182;0.288328;-0.632064;0.276088
29002;9.035307;1.066027;-0.752654;-0.360449;0.189606;-0.221234;-0.697510;-0.373779;-0.348389;0.666522;0.286923;-0.631437;0.273334
29003;8.932500;1.121813;-0.928657;-0.478739;0.203417;-0.218692;-0.689697;-0.367676;-0.350830;0.669147;0.284878;-0.630981;0.270094
29004;8.800127;0.943258;-0.923285;-0.572496;0.227541;-0.186569;-0.692383;-0.372070;-0.352783;0.672034;0.282057;-0.630675;0.266576
29005;8.607471;0.604026;-0.913866;-0.609353;0.266450;-0.130848;-0.687988;-0.371582;-0.368408;0.675014;0.278751;-0.630315;0.263356
29006;8.440176;0.243754;-0.905316;-0.579503;0.317459;-0.064674;-0.672363;-0.361084;-0.373047;0.678113;0.275020;-0.629768;0.260614
29007;8.297719;0.024266;-0.772361;-0.502516;0.371381;-0.016457;-0.676514;-0.352295;-0.380127;0.681246;0.271247;-0.628873;0.258548
29008;8.115913;0.041166;-0.419434;-0.415782;0.392009;0.022883;-0.679199;-0.353760;-0.382324;0.684147;0.267729;-0.627754;0.257271
29009;8.042377;-0.055094;0.014509;-0.357371;0.376975;0.065250;-0.671631;-0.348145;-0.390137;0.686669;0.264475;-0.626641;0.256632
29010;8.114497;0.046125;0.270713;-0.246640;0.292338;0.083549;-0.675781;-0.349121;-0.395264;0.688504;0.261853;-0.625831;0.256382
29011;8.369943;-0.134762;-0.205315;-0.170765;0.241269;0.086827;-0.667236;-0.344727;-0.400391;0.689865;0.259813;-0.625136;0.256492
29012;9.227184;-0.354734;-0.750297;-0.244152;0.222135;0.084368;-0.671143;-0.341553;-0.397461;0.691346;0.257308;-0.624722;0.256038
29013;10.307059;-0.267076;-0.423769;-0.415175;0.199751;0.077967;-0.673096;-0.337158;-0.411621;0.692994;0.254032;-0.624752;0.254777
29014;10.596169;0.284497;-0.449572;-0.411874;0.122671;0.072125;-0.665283;-0.336670;-0.407471;0.694305;0.250832;-0.625240;0.253178
29015;10.526181;0.075049;-1.397076;-0.324098;0.014820;0.133170;-0.667969;-0.332031;-0.407227;0.694711;0.248132;-0.626250;0.252227
29016;10.981540;-0.128228;-1.718492;-0.298016;-0.072100;0.213962;-0.676270;-0.331787;-0.409180;0.694403;0.245382;-0.627867;0.251747
29017;12.874775;-0.023090;-0.076204;-0.403357;-0.164922;0.214053;-0.685303;-0.322754;-0.403809;0.693783;0.242276;-0.630217;0.250588
29018;15.907297;-0.873645;0.640203;-0.427396;-0.135401;0.043707;-0.680420;-0.320557;-0.408691;0.693634;0.239951;-0.632095;0.248498
29019;16.834443;-2.562430;1.196787;0.064451;-0.223674;-0.072537;-0.682129;-0.322998;-0.411621;0.692350;0.241147;-0.633244;0.247994
29020;14.268757;-2.427737;2.559358;0.554667;-0.237113;-0.065279;-0.674072;-0.318359;-0.399902;0.690029;0.245085;-0.633474;0.250008
29021;9.927180;0.195766;1.967790;0.539246;-0.358989;0.116510;-0.685303;-0.324707;-0.385742;0.686722;0.248133;-0.634832;0.252648
29022;8.817269;2.424986;1.365712;0.172956;-0.287246;0.110876;-0.683838;-0.328125;-0.387207;0.684434;0.249180;-0.636466;0.253715
29023;9.161104;3.389157;2.098222;-0.191046;-0.286999;-0.047555;-0.683105;-0.320068;-0.387695;0.683303;0.248902;-0.638535;0.251829
29024;9.465211;3.412421;2.558300;-0.468449;-0.207642;-0.141525;-0.683594;-0.311035;-0.394287;0.683416;0.247219;-0.640594;0.247921
29025;9.138221;3.015971;1.610810;-0.595876;-0.086357;-0.206227;-0.675781;-0.319580;-0.391357;0.684626;0.244714;-0.642146;0.243003
29026;8.938153;2.477412;1.674687;-0.565487;0.017779;-0.245103;-0.678467;-0.317383;-0.386230;0.686354;0.242552;-0.642844;0.238408
29027;9.894069;0.876516;1.554815;-0.470121;0.024966;-0.168414;-0.679688;-0.312256;-0.393555;0.687667;0.240665;-0.643423;0.234949
29028;11.118426;-0.540237;1.690151;-0.225165;0.012116;-0.070085;-0.682373;-0.314697;-0.393066;0.688262;0.239563;-0.643829;0.233214
29029;11.020898;-0.950761;1.254204;0.125003;-0.036098;0.035312;-0.674072;-0.319824;-0.392822;0.687655;0.240092;-0.644006;0.233972
29030;10.297567;-0.446965;0.802506;0.381147;-0.060493;0.110258;-0.678467;-0.307129;-0.400146;0.686297;0.241717;-0.643936;0.236464
29031;9.635516;0.050682;0.664785;0.409786;-0.048228;0.123721;-0.678711;-0.317871;-0.395264;0.685009;0.243111;-0.643888;0.238889
29032;9.221927;0.310164;0.815881;0.282797;-0.002864;0.099399;-0.680908;-0.318359;-0.376709;0.684221;0.243987;-0.643695;0.240768
29033;9.011659;0.412161;0.571347;0.164105;0.030048;0.083850;-0.681641;-0.321289;-0.395508;0.683734;0.244486;-0.643446;0.242305
29034;9.055698;0.349209;0.484011;0.132397;0.069354;0.124753;-0.680908;-0.314453;-0.384766;0.683589;0.244229;-0.643179;0.243678
29035;8.947157;0.079815;0.533829;0.106161;0.076910;0.183486;-0.673096;-0.314209;-0.387939;0.683350;0.243590;-0.643033;0.245367
29036;8.542569;-0.379605;0.276163;0.110923;0.052348;0.217089;-0.672607;-0.314209;-0.387939;0.682952;0.242777;-0.643082;0.247145
29037;8.110807;-0.957421;-0.059010;0.161833;0.024130;0.214648;-0.689697;-0.309570;-0.395508;0.682299;0.242345;-0.643165;0.249150
29038;7.915281;-1.393534;-0.278062;0.273802;0.010146;0.208152;-0.685303;-0.313721;-0.387451;0.681351;0.242568;-0.643117;0.251639
29039;7.760698;-1.589022;-0.355874;0.401739;0.008532;0.199210;-0.679443;-0.318604;-0.384521;0.680113;0.243672;-0.642734;0.254879
29040;7.651491;-1.572238;-0.496621;0.528021;0.004784;0.166625;-0.690674;-0.301514;-0.387695;0.678668;0.245681;-0.642002;0.258620
29041;7.681169;-1.350295;-0.481057;0.652133;0.006023;0.106684;-0.686768;-0.313965;-0.377686;0.677112;0.248559;-0.640957;0.262511
29042;7.735954;-1.099202;-0.477008;0.700811;-0.019444;0.048052;-0.684814;-0.321777;-0.382324;0.675385;0.252204;-0.639740;0.266424
29043;7.647339;-0.754419;-0.653900;0.745313;-0.053030;-0.039163;-0.682373;-0.326660;-0.361816;0.673609;0.256549;-0.638416;0.269922
29044;7.508725;-0.475607;-0.570640;0.866032;-0.046796;-0.096178;-0.688965;-0.330566;-0.367920;0.671619;0.262015;-0.636585;0.273925
29045;7.476684;-0.048165;0.266810;0.869814;-0.080696;-0.118319;-0.677734;-0.331299;-0.355957;0.669507;0.267568;-0.634903;0.277607
29046;7.560768;0.588505;0.749701;0.673459;-0.198713;-0.114620;-0.687500;-0.344238;-0.338623;0.667172;0.272267;-0.634315;0.279996
29047;8.217731;1.222725;-0.031964;0.353515;-0.305024;-0.083778;-0.667480;-0.346436;-0.345947;0.664823;0.275436;-0.635055;0.280803
29048;9.548328;1.254165;-1.539090;0.120134;-0.354631;-0.014381;-0.688965;-0.349609;-0.343262;0.662701;0.276863;-0.636811;0.280440
29049;10.774180;0.930031;-3.409347;-0.044941;-0.369117;0.057012;-0.689453;-0.349365;-0.348145;0.660668;0.277078;-0.639195;0.279599
29050;12.120467;0.607262;-3.946071;-0.044926;-0.267884;0.043140;-0.684082;-0.344482;-0.342773;0.659239;0.277061;-0.641008;0.278835
29051;12.197947;-0.915136;-3.308109;0.028852;-0.222832;0.075503;-0.687744;-0.353027;-0.338379;0.657802;0.277166;-0.642482;0.278733
29052;11.206587;-2.284784;-3.441208;-0.016657;-0.343790;0.097283;-0.695068;-0.342285;-0.339355;0.655749;0.277229;-0.644747;0.278276
29053;12.529087;-2.291020;-3.258377;0.076023;-0.297539;0.034887;-0.689453;-0.344727;-0.327637;0.653877;0.277981;-0.646430;0.278028
29054;14.862952;-1.111391;-0.253436;0.280309;-0.180218;0.020652;-0.697021;-0.335693;-0.317627;0.652172;0.279696;-0.646940;0.279125
29055;16.234574;1.214167;2.045896;0.238504;-0.047178;0.074931;-0.701660;-0.344238;-0.321045;0.651120;0.280613;-0.646950;0.280631
29056;13.898412;4.118922;2.955485;0.167358;-0.076607;0.153608;-0.701416;-0.344482;-0.310059;0.649905;0.280774;-0.647464;0.282101
29057;10.233954;4.201977;3.391677;0.418461;-0.073923;0.143921;-0.704102;-0.345947;-0.315918;0.648111;0.282386;-0.647324;0.284925
29058;8.409253;2.040918;4.619999;0.542354;0.026251;0.123163;-0.698242;-0.340332;-0.311279;0.646634;0.284486;-0.646305;0.288482
29059;8.890344;-0.029503;4.059874;0.557130;0.015245;0.084791;-0.706543;-0.346436;-0.314941;0.645147;0.286883;-0.645208;0.291874
29060;10.326580;-2.346240;3.285875;0.620037;0.013244;0.208283;-0.702881;-0.339355;-0.309570;0.643190;0.288940;-0.644248;0.296252
29061;11.119132;-3.393235;2.279584;0.665990;0.010161;0.314469;-0.708496;-0.349365;-0.305420;0.640822;0.290668;-0.643425;0.301436
29062;11.410890;-2.374998;1.469582;0.805306;0.051329;0.273212;-0.706299;-0.347900;-0.298828;0.638407;0.293268;-0.641884;0.307269
29063;11.711440;-0.441633;1.118796;0.801453;0.007307;0.132800;-0.703613;-0.348145;-0.296631;0.636092;0.296705;-0.640210;0.312225
29064;11.151060;1.133439;0.688969;0.637390;-0.049491;-0.006522;-0.707031;-0.367432;-0.288574;0.634229;0.300135;-0.638901;0.315402
29065;10.392024;1.442060;0.166823;0.355418;-0.078884;-0.094165;-0.699219;-0.360352;-0.290527;0.633125;0.302646;-0.638237;0.316563
29066;9.797246;0.958115;-0.031876;0.119622;-0.054567;-0.125055;-0.701172;-0.356689;-0.287598;0.632842;0.303971;-0.638006;0.316324
29067;9.422398;0.409833;-0.049218;0.019944;-0.003175;-0.151279;-0.696777;-0.373291;-0.286621;0.633144;0.304781;-0.637700;0.315556
29068;9.279092;0.152749;0.008564;0.035222;0.051165;-0.198195;-0.701660;-0.349121;-0.284912;0.633826;0.305784;-0.636938;0.314754
29069;8.880708;0.272647;0.325086;0.075411;0.106665;-0.266773;-0.696533;-0.374023;-0.285889;0.634852;0.307226;-0.635608;0.313970
29070;8.048260;0.803008;0.438463;0.080629;0.177857;-0.346152;-0.691650;-0.366455;-0.295898;0.636459;0.308929;-0.633672;0.312959
29071;7.589145;1.589159;0.367757;0.018533;0.229825;-0.393764;-0.690430;-0.379639;-0.294434;0.638634;0.310374;-0.631511;0.311463
29072;7.723786;2.066984;0.094299;-0.141322;0.209429;-0.411921;-0.689453;-0.380615;-0.300537;0.641143;0.311136;-0.629807;0.308987
29073;7.662971;2.192770;-0.283081;-0.339934;0.175374;-0.418993;-0.682129;-0.386475;-0.302490;0.643997;0.310948;-0.628772;0.305328
29074;7.328181;1.815863;-0.628743;-0.511543;0.176574;-0.394818;-0.675781;-0.384521;-0.312988;0.647223;0.309706;-0.628212;0.300889
29075;7.121110;1.265493;-0.794148;-0.614914;0.173595;-0.311438;-0.670898;-0.378662;-0.316162;0.650483;0.307441;-0.628133;0.296311
29076;7.324277;0.609854;-0.893860;-0.659721;0.173649;-0.209217;-0.680664;-0.375977;-0.316650;0.653573;0.304400;-0.628401;0.292053
29077;7.625556;0.101191;-0.748684;-0.655782;0.202483;-0.098137;-0.666504;-0.375732;-0.328369;0.656482;0.300760;-0.628746;0.288537
29078;7.658684;-0.135558;-0.361660;-0.646790;0.239264;0.008772;-0.672119;-0.375488;-0.335938;0.659310;0.296470;-0.629131;0.285676
29079;7.388749;0.041137;0.205470;-0.561060;0.190491;0.100806;-0.663086;-0.372559;-0.340332;0.661426;0.292282;-0.629785;0.283650
29080;7.338619;0.302342;0.006586;-0.360341;0.115642;0.156805;-0.675781;-0.371094;-0.342041;0.662523;0.289072;-0.630502;0.282787
29081;7.965277;-0.065489;-0.909160;-0.198836;0.029187;0.194150;-0.663574;-0.363037;-0.342041;0.662665;0.286786;-0.631389;0.282802
29082;9.839187;-0.752794;-1.978338;-0.358138;-0.056964;0.189128;-0.676514;-0.350830;-0.345459;0.662748;0.283835;-0.633114;0.281726
29083;11.348605;-0.685799;-1.344187;-0.525501;-0.042360;0.066102;-0.666504;-0.357910;-0.346436;0.663569;0.280580;-0.634850;0.279135
29084;11.651700;0.357744;-1.340818;-0.428058;-0.049010;-0.000019;-0.668457;-0.351807;-0.354980;0.664282;0.278214;-0.636231;0.276653
29085;11.188231;-0.102285;-1.907984;-0.164783;-0.062253;0.067519;-0.677002;-0.351074;-0.343750;0.664163;0.276952;-0.637241;0.275880
29086;11.590186;-0.959967;-1.776117;-0.173477;-0.129578;0.165739;-0.675781;-0.350342;-0.352051;0.663445;0.275331;-0.638847;0.275514
29087;15.094682;-1.146320;0.187063;-0.426024;-0.170155;0.095141;-0.676758;-0.341064;-0.357910;0.663267;0.272739;-0.641105;0.273268
29088;16.094546;-1.533288;1.134493;-0.216066;-0.520532;-0.083329;-0.685303;-0.338623;-0.344727;0.661140;0.273034;-0.644411;0.270336
29089;15.815148;-2.625277;2.742251;0.121926;-0.512634;-0.281185;-0.677246;-0.350586;-0.340332;0.658691;0.276273;-0.646428;0.268197
29090;10.821392;0.907413;3.982810;0.129431;-0.663288;-0.257613;-0.686035;-0.355713;-0.336426;0.655355;0.279735;-0.649289;0.265861
29091;7.681907;3.188032;1.645833;-0.301043;-0.645014;-0.107769;-0.679932;-0.350342;-0.332520;0.652768;0.279978;-0.653329;0.262046
29092;7.991107;3.210006;1.306878;-0.689409;-0.438116;-0.082796;-0.682617;-0.344238;-0.326904;0.652140;0.277492;-0.657127;0.256703
29093;9.297616;3.035656;1.106252;-0.734491;-0.312038;-0.232917;-0.685303;-0.351318;-0.325684;0.652584;0.275321;-0.659949;0.250597
29094;10.698910;3.091093;0.971427;-0.616335;-0.144913;-0.439718;-0.681641;-0.349121;-0.341064;0.654077;0.274578;-0.661106;0.244395
29095;11.052070;2.174767;1.448305;-0.629736;-0.072920;-0.470883;-0.675293;-0.341797;-0.344238;0.656056;0.273722;-0.661817;0.238043
29096;11.649273;0.476429;0.827585;-0.726171;-0.037424;-0.358143;-0.683838;-0.338379;-0.352051;0.658194;0.271635;-0.662753;0.231846
29097;12.100159;-0.283154;0.454781;-0.561985;-0.035914;-0.195989;-0.679199;-0.344238;-0.347656;0.659625;0.269547;-0.663706;0.227451
29098;11.742792;-0.591438;0.074948;-0.188106;-0.074283;-0.010243;-0.677734;-0.340576;-0.346924;0.659632;0.268588;-0.664552;0.226092
29099;10.871169;-0.537099;-0.217485;0.108188;-0.100444;0.119232;-0.680420;-0.350586;-0.344971;0.658580;0.268599;-0.665267;0.227039
29100;10.064513;-0.326003;-0.012956;0.211560;-0.048644;0.153440;-0.676514;-0.338379;-0.347656;0.657518;0.268892;-0.665573;0.228868
29101;9.517914;0.189621;0.338616;0.158693;0.019657;0.125030;-0.683838;-0.343018;-0.340820;0.657006;0.268914;-0.665542;0.230396
29102;9.277496;0.591527;0.420021;0.054710;0.067816;0.111487;-0.680420;-0.338379;-0.340820;0.657010;0.268369;-0.665408;0.231404
29103;8.971022;0.477779;0.237115;-0.014178;0.100788;0.151857;-0.674805;-0.339355;-0.344727;0.657273;0.267159;-0.665315;0.232324
29104;8.219216;-0.176326;0.147262;-0.036615;0.122124;0.216327;-0.682861;-0.328125;-0.352783;0.657582;0.265419;-0.665289;0.233514
29105;7.525568;-0.987773;0.117217;0.008363;0.131390;0.248676;-0.681641;-0.342529;-0.350830;0.657776;0.263722;-0.665198;0.235146
29106;7.445102;-1.509442;0.125986;0.134994;0.112186;0.276430;-0.687012;-0.326660;-0.360596;0.657526;0.262611;-0.665012;0.237602
29107;7.540961;-1.743999;-0.158447;0.308696;0.089838;0.297573;-0.680664;-0.323486;-0.347168;0.656725;0.262368;-0.664648;0.241079
29108;7.392658;-1.792092;-0.551160;0.493653;0.058331;0.277820;-0.684814;-0.330322;-0.357178;0.655366;0.263320;-0.664023;0.245420
29109;7.399852;-1.224078;-1.013066;0.592490;0.017758;0.246496;-0.683350;-0.330322;-0.337402;0.653618;0.265054;-0.663334;0.250037
29110;7.161712;-1.131096;-1.297519;0.644868;-0.013762;0.189128;-0.692139;-0.331055;-0.338379;0.651673;0.267462;-0.662556;0.254570
29111;7.383427;-0.846260;-1.376213;0.659362;-0.007848;0.111618;-0.695068;-0.340088;-0.341797;0.649874;0.270351;-0.661526;0.258762
29112;7.505923;-0.721407;-1.094180;0.634793;-0.001595;0.019322;-0.694824;-0.332031;-0.333008;0.648347;0.273592;-0.660288;0.262324
29113;7.417843;-0.466442;-0.685791;0.589535;0.036627;-0.062654;-0.695068;-0.344482;-0.330811;0.647294;0.276948;-0.658741;0.265274
29114;7.377186;-0.365937;-0.755925;0.549111;0.012434;-0.134906;-0.690674;-0.340088;-0.327637;0.646347;0.280533;-0.657231;0.267554
29115;7.943970;-0.455846;-2.080814;0.525409;-0.056392;-0.169333;-0.689209;-0.358398;-0.327881;0.645142;0.284322;-0.656052;0.269348
29116;10.038417;-0.249906;-2.137299;0.618120;-0.060207;-0.188940;-0.685059;-0.357910;-0.318604;0.643725;0.288722;-0.654622;0.271530
29117;11.638547;-0.220565;-0.948617;0.697682;0.033942;-0.110567;-0.688477;-0.355225;-0.317871;0.642432;0.292898;-0.652677;0.274782
29118;12.086156;-0.100048;-0.738149;0.527676;0.178005;-0.031770;-0.687500;-0.363525;-0.318848;0.642140;0.295391;-0.650530;0.277869
29119;11.375035;0.635382;-1.339422;0.254714;0.054885;-0.050918;-0.691650;-0.369629;-0.317139;0.641890;0.296811;-0.649616;0.279069
29120;10.659937;0.360738;-2.998227;0.024918;-0.263302;-0.066390;-0.688232;-0.371338;-0.320312;0.640517;0.297826;-0.650898;0.278154
29121;13.051936;0.180252;-3.537758;0.122873;-0.175400;-0.075599;-0.687256;-0.369385;-0.311279;0.639400;0.299201;-0.651463;0.277926
29122;14.081249;0.520811;-1.868628;0.146702;-0.216990;-0.021659;-0.686279;-0.371338;-0.308594;0.637867;0.300508;-0.652329;0.278008
29123;15.580198;1.455360;-0.499087;0.012241;-0.071253;0.025005;-0.696777;-0.365234;-0.311523;0.637354;0.300507;-0.652848;0.277967
29124;14.574621;2.792087;1.697499;-0.147942;-0.024171;0.245289;-0.695068;-0.363281;-0.311035;0.636986;0.298341;-0.654041;0.278337
29125;12.092180;3.373834;2.663853;-0.001516;-0.002644;0.352064;-0.695068;-0.362793;-0.307373;0.636121;0.296320;-0.655039;0.280123
29126;8.953131;1.704865;3.947640;0.263442;0.042052;0.369563;-0.697754;-0.358887;-0.309326;0.634796;0.295506;-0.655212;0.283561
29127;7.844816;-0.417077;3.671265;0.181293;-0.016421;0.182244;-0.698242;-0.355713;-0.303955;0.633794;0.295413;-0.655419;0.285414
29128;8.776689;-1.736125;3.415701;0.224960;0.060631;0.171322;-0.699219;-0.356934;-0.310303;0.633126;0.295433;-0.655079;0.287651
29129;9.101304;-2.610463;2.507217;0.247720;0.086718;0.266710;-0.700439;-0.352539;-0.301514;0.632315;0.294981;-0.654773;0.290578
29130;10.025849;-1.987992;1.863215;0.329176;0.146085;0.275939;-0.707031;-0.351562;-0.311035;0.631591;0.294775;-0.653963;0.294165
29131;11.204004;-0.478252;1.418851;0.353288;0.127320;0.221524;-0.702881;-0.355957;-0.304688;0.630835;0.295024;-0.653051;0.297544
29132;11.401151;0.850204;0.705657;0.250458;0.025260;0.119959;-0.703369;-0.345703;-0.308350;0.630019;0.295546;-0.652669;0.299586
29133;10.682103;1.665524;0.103258;0.084174;-0.027402;-0.006614;-0.702393;-0.349609;-0.302734;0.629645;0.296004;-0.652668;0.299922
29134;9.892682;1.288444;0.078616;-0.088940;-0.032180;-0.091347;-0.711182;-0.355225;-0.309326;0.629880;0.296033;-0.652914;0.298863
29135;9.576351;0.367288;-0.041935;-0.210632;-0.021470;-0.114393;-0.718262;-0.351807;-0.308105;0.630532;0.295518;-0.653349;0.297041
29136;9.806781;-0.445811;-0.234612;-0.195104;0.029959;-0.142123;-0.706543;-0.348633;-0.315430;0.631489;0.295109;-0.653405;0.295288
29137;9.846091;-0.689864;-0.201273;-0.083351;0.081820;-0.210456;-0.702393;-0.349121;-0.307129;0.632625;0.295521;-0.652745;0.293899
29138;9.575275;-0.400510;-0.116380;0.027411;0.108644;-0.286071;-0.699219;-0.350830;-0.308350;0.633810;0.296873;-0.651478;0.292792
29139;8.886158;0.428150;-0.234734;0.050354;0.119711;-0.339411;-0.698242;-0.366943;-0.310547;0.635125;0.298606;-0.649960;0.291553
29140;8.526574;1.222355;-0.454993;-0.004010;0.091441;-0.356865;-0.700439;-0.365967;-0.320312;0.636458;0.300217;-0.648672;0.289854
29141;8.383340;1.689853;-0.758868;-0.125894;0.047457;-0.374460;-0.682861;-0.363525;-0.321289;0.637900;0.301367;-0.647868;0.287277
29142;8.222196;1.544059;-1.044121;-0.254058;0.024504;-0.375047;-0.691162;-0.366699;-0.329102;0.639538;0.301885;-0.647486;0.283934
29143;7.917394;1.270295;-1.286067;-0.367930;0.038748;-0.324395;-0.688232;-0.373291;-0.327881;0.641411;0.301479;-0.647419;0.280271
29144;7.736381;0.977495;-1.393466;-0.457011;0.078299;-0.227824;-0.686035;-0.371094;-0.330322;0.643480;0.299987;-0.647577;0.276741
29145;7.711698;0.768744;-1.459912;-0.524402;0.127140;-0.128912;-0.689941;-0.368652;-0.331299;0.645738;0.297482;-0.647865;0.273493
29146;7.717480;0.801107;-1.119825;-0.524384;0.172661;-0.013329;-0.690674;-0.384521;-0.341553;0.647960;0.294248;-0.648180;0.270977
29147;7.416014;0.776343;-0.168135;-0.506615;0.196289;0.100901;-0.685303;-0.368896;-0.345703;0.649997;0.290435;-0.648591;0.269222
29148;6.691151;0.869471;0.592476;-0.462305;0.119995;0.172571;-0.694580;-0.353027;-0.347168;0.651341;0.286636;-0.649480;0.267901
29149;6.569695;0.458926;-0.342694;-0.333015;0.028849;0.205269;-0.691650;-0.350830;-0.355225;0.651797;0.283560;-0.650645;0.267237
29150;7.416232;-0.547079;-1.715281;-0.268452;-0.126294;0.243136;-0.691650;-0.357666;-0.349121;0.651172;0.280968;-0.652592;0.266752
29151;9.622693;-1.212163;-1.968530;-0.352301;-0.147940;0.213711;-0.691162;-0.343994;-0.349854;0.650679;0.278135;-0.654760;0.265607
29152;11.070951;-0.788412;-1.021054;-0.470372;-0.087501;0.075439;-0.693359;-0.344482;-0.355469;0.651086;0.275273;-0.656535;0.263198
29153;11.483907;0.151989;-1.817922;-0.464334;-0.073781;-0.036175;-0.693604;-0.341064;-0.351807;0.651789;0.273019;-0.657955;0.260244
29154;11.138774;0.146388;-2.637226;-0.246067;-0.050268;0.017116;-0.694580;-0.341553;-0.356934;0.651999;0.271608;-0.658889;0.258827
29155;12.153636;-0.779352;-2.007847;-0.319155;-0.019039;0.142134;-0.700439;-0.339355;-0.357666;0.652274;0.269040;-0.660092;0.257750
29156;13.988826;-0.906339;-0.720377;-0.394543;-0.299358;0.083572;-0.698975;-0.320557;-0.360107;0.651290;0.266985;-0.662840;0.255309
29157;16.533660;-1.242951;0.318659;-0.167654;-0.407757;-0.157168;-0.703125;-0.323975;-0.347168;0.649707;0.267705;-0.665154;0.252557
29158;15.686671;-1.588696;1.959173;0.054629;-0.445890;-0.340028;-0.707275;-0.336426;-0.342285;0.647784;0.270729;-0.666780;0.249973
29159;11.029159;0.995558;3.925038;-0.055858;-0.536391;-0.320477;-0.709473;-0.338867;-0.341064;0.645549;0.273235;-0.669146;0.246683
29160;8.591314;3.186193;2.486928;-0.611499;-0.543114;-0.145255;-0.705566;-0.332764;-0.343506;0.644160;0.271776;-0.673061;0.241216
29161;8.629989;3.321026;1.477575;-0.984108;-0.327391;-0.148083;-0.708008;-0.322754;-0.350342;0.644794;0.267874;-0.676518;0.234109
29162;9.209941;3.272571;1.522482;-0.974290;-0.206685;-0.236839;-0.706055;-0.315674;-0.349854;0.646215;0.264260;-0.679062;0.226822
29163;9.508505;2.748143;1.286524;-0.958618;-0.137204;-0.326062;-0.706299;-0.326904;-0.350586;0.648114;0.261088;-0.680954;0.219279
29164;9.911880;2.243800;0.758873;-0.982873;-0.078094;-0.408902;-0.710205;-0.316895;-0.357910;0.650501;0.258139;-0.682332;0.211272
29165;10.977452;0.801462;0.696263;-0.996515;-0.079051;-0.373278;-0.702393;-0.310547;-0.359375;0.652797;0.254887;-0.683766;0.203353
29166;11.776737;-0.674584;0.385295;-0.846270;-0.117330;-0.221015;-0.707764;-0.308105;-0.365967;0.654254;0.251634;-0.685428;0.197028
29167;11.459331;-1.356261;-0.205099;-0.453315;-0.139078;-0.064745;-0.708984;-0.305664;-0.364746;0.654482;0.249660;-0.686865;0.193751
29168;10.834225;-1.261394;-0.585680;-0.069118;-0.107734;0.060215;-0.716797;-0.315918;-0.365967;0.653882;0.249017;-0.687761;0.193426
29169;10.055215;-0.736307;-0.740034;0.166702;-0.021709;0.127392;-0.706055;-0.312988;-0.359375;0.653174;0.249140;-0.687943;0.195006
29170;9.651269;-0.036316;-0.168062;0.199762;0.108308;0.120456;-0.709229;-0.305176;-0.358154;0.653152;0.249272;-0.687344;0.197010
29171;9.651657;0.324881;0.131974;0.097204;0.188714;0.101211;-0.704102;-0.311768;-0.365723;0.653833;0.248821;-0.686435;0.198488
29172;9.730256;0.233207;0.177229;0.012730;0.226502;0.136788;-0.710938;-0.296631;-0.368408;0.654844;0.247645;-0.685527;0.199759
29173;9.279944;-0.175773;0.138939;-0.008415;0.236882;0.204175;-0.718262;-0.306641;-0.374023;0.655842;0.245944;-0.684736;0.201293
29174;8.586620;-0.668410;0.060275;0.043378;0.236328;0.247592;-0.701660;-0.297607;-0.370117;0.656652;0.244284;-0.683942;0.203364
29175;8.230058;-1.021464;-0.111292;0.133844;0.215110;0.270641;-0.714844;-0.298584;-0.372070;0.657113;0.243021;-0.683149;0.206036
29176;8.185945;-1.400213;-0.387633;0.243334;0.194116;0.295664;-0.706299;-0.297363;-0.372314;0.657180;0.242250;-0.682327;0.209425
29177;8.079150;-1.503683;-0.582476;0.369859;0.175461;0.291162;-0.711670;-0.288818;-0.373779;0.656884;0.242229;-0.681364;0.213475
29178;7.978884;-1.526814;-0.737360;0.515546;0.131814;0.255296;-0.711670;-0.296387;-0.376953;0.656096;0.243278;-0.680295;0.218062
29179;7.790209;-1.323364;-0.853848;0.621642;0.096186;0.219463;-0.713867;-0.294678;-0.377930;0.654938;0.245174;-0.679134;0.222987
29180;7.771020;-1.216516;-0.977465;0.642799;0.062161;0.158731;-0.710449;-0.302979;-0.370361;0.653637;0.247583;-0.677974;0.227623
29181;7.803924;-0.994786;-1.037564;0.623548;0.031183;0.066922;-0.717041;-0.303955;-0.365967;0.652355;0.250462;-0.676808;0.231587
29182;7.661458;-0.791041;-1.029736;0.621460;0.009077;-0.020770;-0.711914;-0.312500;-0.365234;0.651103;0.253858;-0.675569;0.235005
29183;7.444306;-0.470038;-0.933396;0.604719;-0.055203;-0.071367;-0.713623;-0.303955;-0.368652;0.649607;0.257571;-0.674583;0.237920
29184;7.489134;-0.307972;-1.094048;0.557088;-0.144042;-0.106802;-0.715820;-0.316406;-0.364502;0.647771;0.261387;-0.674083;0.240170
29185;8.096790;-0.256087;-2.083130;0.470214;-0.213470;-0.119350;-0.715088;-0.322266;-0.344971;0.645744;0.264942;-0.674088;0.241713
29186;9.845744;-0.359612;-2.966943;0.402291;-0.211688;-0.126552;-0.721191;-0.317627;-0.346924;0.643878;0.268165;-0.674197;0.242830
29187;11.652078;-0.407419;-1.803253;0.512178;-0.059543;-0.104091;-0.719727;-0.330078;-0.349365;0.642567;0.271532;-0.673311;0.245011
29188;11.640127;-0.346189;-0.827062;0.564084;0.143201;-0.062431;-0.724854;-0.325928;-0.343506;0.642177;0.274528;-0.671309;0.248169
29189;10.590368;0.057692;-0.981489;0.447720;0.149884;-0.092201;-0.722656;-0.321533;-0.340576;0.642140;0.277044;-0.669435;0.250519
29190;9.511571;-0.043566;-2.405810;0.330021;-0.112184;-0.153307;-0.717529;-0.338379;-0.340088;0.641032;0.279812;-0.669062;0.251274
29191;9.538021;-1.034421;-3.980917;0.433947;-0.362284;-0.176006;-0.722168;-0.345947;-0.330322;0.638323;0.283789;-0.669738;0.251908
29192;13.431473;-0.450544;-2.524203;0.803611;0.135804;-0.144740;-0.725342;-0.353760;-0.337891;0.637431;0.288502;-0.667042;0.255936
29193;14.718202;1.114933;1.049400;0.663246;0.132435;0.103178;-0.716553;-0.352295;-0.328613;0.636305;0.291084;-0.665234;0.260481
29194;17.177383;3.652038;0.505706;0.222746;0.079704;0.204431;-0.731934;-0.351074;-0.323242;0.635722;0.290879;-0.664894;0.262988
29195;13.017445;4.465425;1.218470;-0.044091;-0.166002;0.312642;-0.732422;-0.338379;-0.328125;0.634183;0.289195;-0.666700;0.263987
29196;8.351053;2.167437;1.729270;0.015036;-0.207255;0.219201;-0.738770;-0.340332;-0.333496;0.632476;0.288427;-0.668364;0.264712
29197;7.802439;0.193616;2.375488;0.369709;0.021097;0.138593;-0.732910;-0.340576;-0.316895;0.631362;0.289473;-0.667841;0.267536
29198;8.395820;-0.981424;3.112870;0.511165;0.179920;0.099027;-0.729492;-0.339355;-0.327393;0.630868;0.291127;-0.666058;0.271324
29199;9.387192;-1.804846;3.137494;0.592979;0.141476;0.136913;-0.735107;-0.349121;-0.313477;0.629862;0.293083;-0.664364;0.275675
29200;9.719291;-2.398912;2.184638;0.710077;0.173454;0.243221;-0.735352;-0.339844;-0.315430;0.628480;0.294987;-0.662465;0.281312
29201;10.194585;-1.517884;1.616911;0.811122;0.288895;0.253897;-0.730225;-0.348633;-0.317871;0.627432;0.297076;-0.659714;0.287841
29202;10.885875;0.509413;1.469363;0.769866;0.252715;0.215999;-0.740234;-0.346680;-0.312744;0.626344;0.299233;-0.657119;0.293850
29203;11.103863;2.129856;0.914976;0.611682;0.047159;0.106646;-0.739502;-0.350830;-0.309570;0.624770;0.301654;-0.655686;0.297899
29204;10.475363;2.635905;0.076769;0.347176;-0.101555;0.011635;-0.731445;-0.357422;-0.312988;0.623274;0.303581;-0.655433;0.299627
29205;9.951694;1.923145;-0.292472;0.077838;-0.070372;-0.045614;-0.741699;-0.350342;-0.303955;0.622770;0.304344;-0.655542;0.299662
29206;9.871553;0.909966;-0.209541;-0.030497;0.007285;-0.082669;-0.733643;-0.346191;-0.310059;0.623059;0.304549;-0.655428;0.299102
29207;10.038504;0.041411;-0.034757;-0.026977;0.042085;-0.098120;-0.737549;-0.344727;-0.311768;0.623568;0.304769;-0.655085;0.298569
29208;10.115278;-0.333393;-0.048030;-0.002307;0.027053;-0.109507;-0.741211;-0.346191;-0.314697;0.623960;0.305216;-0.654729;0.298073
29209;9.890500;-0.168333;-0.339635;0.044340;0.011696;-0.131847;-0.730469;-0.361084;-0.308105;0.624204;0.306066;-0.654279;0.297677
29210;9.614497;0.414272;-0.557520;0.084904;0.041122;-0.152311;-0.739014;-0.355713;-0.298828;0.624555;0.307169;-0.653521;0.297471
29211;9.250276;0.878961;-0.623519;0.080858;0.049233;-0.158517;-0.737061;-0.361572;-0.312988;0.624974;0.308260;-0.652716;0.297229
29212;9.002402;1.067321;-0.653694;0.063746;0.029536;-0.165908;-0.732422;-0.360107;-0.305420;0.625348;0.309351;-0.652035;0.296802
29213;8.645779;1.016181;-0.794123;0.040269;0.022995;-0.157883;-0.731689;-0.364014;-0.307861;0.625727;0.310291;-0.651468;0.296269
29214;8.222869;1.006039;-0.992520;-0.000594;0.020414;-0.126604;-0.737793;-0.370850;-0.314453;0.626120;0.310853;-0.651096;0.295667
29215;8.001267;0.992978;-1.039302;-0.040112;0.038406;-0.066900;-0.737061;-0.365234;-0.308594;0.626565;0.310839;-0.650883;0.295205
29216;8.057224;0.916452;-0.952041;-0.065591;0.063242;0.003927;-0.732910;-0.354736;-0.306396;0.627037;0.310246;-0.650788;0.295036
29217;7.850905;0.782585;-0.765512;-0.046232;0.068007;0.081256;-0.739258;-0.362549;-0.304199;0.627295;0.309320;-0.650823;0.295384
29218;7.591833;0.534260;-0.712836;-0.025060;0.052759;0.164521;-0.740234;-0.357422;-0.311768;0.627209;0.308092;-0.651098;0.296241
29219;7.555361;0.305825;-0.948453;-0.018056;-0.014757;0.261784;-0.743164;-0.361328;-0.310547;0.626497;0.306537;-0.651958;0.297467
29220;7.915788;0.252729;-1.292790;0.024100;-0.059827;0.350872;-0.737549;-0.358643;-0.304932;0.625207;0.304829;-0.653172;0.299269
29221;8.727173;0.157956;-1.551520;0.061689;-0.061705;0.423663;-0.744141;-0.353760;-0.306885;0.623623;0.302920;-0.654481;0.301643
29222;9.806064;0.310212;-1.608545;0.107433;-0.055496;0.485351;-0.749268;-0.344238;-0.306152;0.621792;0.300892;-0.655790;0.304595
29223;10.361507;0.595812;-1.264356;0.164463;-0.153428;0.622079;-0.756592;-0.340820;-0.311768;0.618921;0.298651;-0.657790;0.308311
29224;9.925930;0.625148;-1.211260;0.194102;-0.284053;0.805774;-0.759766;-0.322021;-0.303467;0.614763;0.295878;-0.660818;0.312795
29225;9.808479;0.519548;-0.494325;0.186273;-0.351389;0.923818;-0.762695;-0.322021;-0.298096;0.609908;0.292570;-0.664464;0.317653
29226;10.588386;-0.426671;0.654661;0.037647;-0.344229;0.914044;-0.778809;-0.312744;-0.292236;0.605438;0.288523;-0.668396;0.321630
29227;10.951422;-1.688215;1.647934;-0.107801;-0.419369;0.822113;-0.781982;-0.297607;-0.282471;0.601107;0.284438;-0.672832;0.324133
29228;11.120165;-3.042402;3.243212;-0.274022;-0.492653;0.504958;-0.794678;-0.291016;-0.277100;0.597584;0.281482;-0.677296;0.323931
29229;12.851931;-3.865670;3.221954;-0.676038;-0.630942;-0.177015;-0.790039;-0.284180;-0.277100;0.596032;0.280736;-0.681893;0.317735
29230;10.561219;-2.312055;5.591834;-0.340525;-0.421140;-0.806383;-0.783447;-0.290771;-0.275635;0.596515;0.284663;-0.683035;0.310806
29231;9.714462;-1.465158;2.872969;0.490987;-0.243476;-0.769031;-0.786865;-0.303467;-0.266846;0.595902;0.292038;-0.681177;0.309213
29232;10.416619;-0.802906;0.657455;1.210940;-0.017464;-0.510979;-0.786133;-0.323975;-0.273682;0.594101;0.300916;-0.676905;0.313517
29233;11.657107;0.481011;0.496582;1.858775;0.228119;-0.429900;-0.785645;-0.327637;-0.247803;0.591739;0.311849;-0.669797;0.322438
29234;12.823935;1.439728;0.688707;2.461167;0.249526;-0.366860;-0.776123;-0.346436;-0.240723;0.587559;0.325233;-0.660901;0.334975
29235;12.035988;1.346421;-0.484819;2.729733;0.024028;-0.291159;-0.772461;-0.362793;-0.225586;0.580919;0.339991;-0.652246;0.348589
29236;11.169345;0.136538;-1.039334;2.713862;-0.052294;-0.216624;-0.770752;-0.372803;-0.211182;0.573395;0.354314;-0.643879;0.362077
29237;10.651816;-1.375739;-1.029048;2.658343;-0.090502;-0.152170;-0.769043;-0.389404;-0.181396;0.565348;0.367961;-0.635729;0.375279
29238;10.382954;-2.031809;-1.264680;2.688505;-0.067793;-0.120626;-0.761963;-0.398438;-0.176025;0.556946;0.381336;-0.627161;0.388668
29239;10.672856;-1.656160;-1.679383;2.855426;-0.001903;-0.113363;-0.769287;-0.416748;-0.156250;0.548046;0.395027;-0.617429;0.402965
29240;10.834173;-0.781851;-1.811720;3.135119;0.099034;-0.082748;-0.770264;-0.425537;-0.130615;0.538300;0.409256;-0.606014;0.418915
29241;10.687588;0.007647;-1.491830;3.409351;0.198957;-0.023451;-0.769775;-0.423096;-0.114746;0.527511;0.423763;-0.592949;0.436542
29242;10.304107;0.179618;-1.214428;3.580962;0.245664;0.072529;-0.769775;-0.430176;-0.089600;0.515551;0.438008;-0.578890;0.455240
29243;9.919607;-0.085793;-1.137849;3.686517;0.283192;0.171095;-0.767090;-0.427734;-0.063721;0.502537;0.451690;-0.564097;0.474581
29244;9.825494;-0.465318;-1.027075;3.777455;0.301904;0.251108;-0.766602;-0.440430;-0.042480;0.488458;0.464864;-0.548621;0.494293
29245;9.705386;-0.699571;-0.981079;3.817805;0.278388;0.282038;-0.781006;-0.445068;-0.019287;0.473513;0.477700;-0.532638;0.513697
29246;9.507750;-0.556896;-1.101761;3.774694;0.249468;0.294083;-0.784424;-0.443359;0.013672;0.458081;0.489951;-0.516466;0.532328
29247;9.581759;0.030914;-1.251325;3.689186;0.234895;0.314267;-0.784912;-0.421875;0.031982;0.442385;0.501381;-0.500314;0.550090
29248;9.442422;0.293685;-0.966793;3.608480;0.209688;0.311391;-0.784180;-0.427246;0.058105;0.426519;0.512154;-0.484146;0.566906
29249;9.122624;0.152502;-0.683872;3.497909;0.168675;0.284549;-0.773682;-0.419678;0.074219;0.410722;0.522397;-0.468107;0.582482
29250;9.033381;-0.004192;-0.544605;3.392015;0.170917;0.248898;-0.795410;-0.410645;0.090576;0.395237;0.531969;-0.452031;0.597046
29251;9.014995;-0.051769;-0.297106;3.307925;0.169898;0.199520;-0.791016;-0.415039;0.115479;0.380048;0.541029;-0.435805;0.610676
29252;8.852297;0.016242;-0.167224;3.192471;0.110461;0.120127;-0.787109;-0.402100;0.135742;0.365293;0.549932;-0.419679;0.622900
29253;8.963135;0.181975;-0.428254;3.057255;0.049293;0.038086;-0.801758;-0.391113;0.157715;0.351116;0.558654;-0.403780;0.633707
29254;9.235347;0.319063;-0.539235;2.906938;-0.015801;-0.023508;-0.792236;-0.384277;0.183594;0.337523;0.567142;-0.388331;0.643139
29255;9.324489;0.364726;-0.476080;2.721539;-0.089471;-0.071986;-0.791504;-0.381836;0.198730;0.324647;0.575354;-0.373642;0.651126
29256;9.265380;0.307863;-0.720260;2.602190;-0.158172;-0.104459;-0.784912;-0.375000;0.213867;0.312149;0.583431;-0.359448;0.658003
29257;9.152655;0.051466;-0.861731;2.575998;-0.217729;-0.138704;-0.781250;-0.362793;0.229492;0.299644;0.591597;-0.345219;0.664116
29258;8.808456;-0.210403;-1.138066;2.604249;-0.335003;-0.184997;-0.781006;-0.357910;0.244873;0.286774;0.600337;-0.330737;0.669305
29259;8.586215;-0.266777;-1.545056;2.678239;-0.412872;-0.263659;-0.780273;-0.354980;0.274902;0.273622;0.609606;-0.315474;0.673786
29260;8.558867;-0.221250;-1.737740;2.696945;-0.440212;-0.341123;-0.775391;-0.339111;0.296143;0.260595;0.618966;-0.299617;0.677644
29261;8.757790;-0.244889;-1.809311;2.659733;-0.430558;-0.387583;-0.773193;-0.336182;0.310791;0.247905;0.627984;-0.283557;0.681011
29262;8.668406;-0.249537;-1.861928;2.616131;-0.415469;-0.407595;-0.769287;-0.327393;0.329834;0.235480;0.636553;-0.267470;0.683966
29263;9.122134;0.077914;-1.791875;2.678848;-0.300049;-0.444259;-0.761475;-0.306396;0.345947;0.223067;0.644350;-0.250474;0.687253
29264;11.108572;0.791108;-0.742400;2.790198;-0.030951;-0.456016;-0.761719;-0.308350;0.365967;0.210552;0.650494;-0.232144;0.691834
29265;13.382143;2.514087;0.538348;2.845051;0.211944;-0.453916;-0.762207;-0.295654;0.367188;0.198101;0.654971;-0.212957;0.697437
29266;12.589295;3.898334;0.636738;2.830321;0.144201;-0.523172;-0.761230;-0.273682;0.388916;0.185896;0.659551;-0.193459;0.702146
29267;9.818029;3.696376;0.760963;2.868901;0.128387;-0.539285;-0.770752;-0.277588;0.406982;0.173403;0.663944;-0.173544;0.706394
29268;8.207990;1.738803;1.440513;3.104565;0.255184;-0.407554;-0.757568;-0.246094;0.415527;0.158933;0.667317;-0.152674;0.711421
29269;8.437689;-0.213169;1.608060;3.063189;0.370713;-0.300873;-0.750977;-0.242676;0.419678;0.144079;0.669366;-0.132378;0.716706
29270;9.697993;-0.645555;0.952462;2.904019;0.357941;-0.222183;-0.758545;-0.219238;0.424316;0.129566;0.670792;-0.113408;0.721381
29271;10.623581;0.209471;-0.129498;2.806756;0.250002;-0.131164;-0.757324;-0.199951;0.429199;0.114852;0.672285;-0.095581;0.725056
29272;11.027184;1.178067;-0.722824;2.818745;0.217994;-0.110362;-0.762695;-0.187500;0.435791;0.099858;0.673598;-0.077778;0.728179
29273;10.632556;1.861584;-0.843875;2.853400;0.223677;-0.110100;-0.761475;-0.172119;0.441406;0.084632;0.674529;-0.059720;0.730946
29274;10.613935;2.064396;-1.043259;2.810005;0.239471;-0.084291;-0.770996;-0.145996;0.451416;0.069455;0.674949;-0.042026;0.733385
29275;10.759812;1.979659;-0.996479;2.820315;0.218089;-0.072862;-0.770996;-0.133057;0.452881;0.054073;0.675131;-0.024314;0.735312
29276;10.736838;1.647605;-0.914988;2.853028;0.216178;-0.079538;-0.766357;-0.110596;0.461914;0.038539;0.674961;-0.006352;0.736819
29277;10.533844;1.602653;-0.911489;2.841756;0.254319;-0.076413;-0.765625;-0.093750;0.456055;0.023017;0.674183;0.011541;0.738116
29278;10.218086;1.957772;-0.933615;2.790012;0.282132;-0.057543;-0.765381;-0.069824;0.453369;0.007659;0.672842;0.029012;0.739178
29279;9.856299;2.301073;-1.015784;2.744971;0.297828;-0.019949;-0.770996;-0.046387;0.463379;-0.007699;0.671052;0.045984;0.739943
29280;9.595794;2.506551;-0.940212;2.675900;0.322375;0.013340;-0.778076;-0.032227;0.458984;-0.022886;0.668794;0.062322;0.740477
29281;9.296855;2.514252;-0.924782;2.552196;0.346906;0.025846;-0.780029;-0.009277;0.456787;-0.037451;0.666084;0.077796;0.740863
29282;9.021898;2.563611;-0.920281;2.409503;0.361019;0.037433;-0.779297;0.010010;0.447021;-0.051301;0.663052;0.092293;0.741088
29283;8.746162;2.758690;-0.866922;2.261147;0.375754;0.046581;-0.784668;0.024170;0.453125;-0.064382;0.659741;0.105786;0.741220
29284;8.560729;2.884406;-0.795793;2.085459;0.385026;0.053575;-0.785645;0.029785;0.438965;-0.076524;0.656258;0.118119;0.741294
29285;8.578507;2.899726;-0.802452;1.887606;0.406195;0.059473;-0.793457;0.053467;0.426758;-0.087619;0.652582;0.129158;0.741470
29286;8.723675;2.952107;-0.774652;1.665408;0.431262;0.062164;-0.790283;0.063965;0.432617;-0.097549;0.648763;0.138768;0.741845
29287;8.748289;3.129416;-0.737242;1.455408;0.430234;0.073063;-0.789551;0.073975;0.424805;-0.106385;0.645028;0.147000;0.742302
29288;8.706608;3.033069;-0.595659;1.265541;0.412723;0.101035;-0.796631;0.086182;0.412842;-0.114341;0.641507;0.153910;0.742770
29289;8.634824;2.841265;-0.369346;1.145653;0.386792;0.142413;-0.797119;0.097412;0.395996;-0.121873;0.638237;0.159870;0.743130
29290;8.470216;2.369806;-0.294489;1.073718;0.352905;0.181542;-0.804199;0.108154;0.400146;-0.129214;0.635235;0.165202;0.743295
29291;8.390831;1.791619;-0.387393;0.978811;0.287336;0.204889;-0.799561;0.112305;0.395752;-0.136093;0.632735;0.169882;0.743145
29292;8.413026;1.421214;-0.691020;0.833304;0.200665;0.203242;-0.808838;0.118408;0.386963;-0.142059;0.630893;0.173759;0.742698
29293;8.568056;1.278345;-1.153616;0.706232;0.106688;0.195903;-0.809570;0.120605;0.389160;-0.147175;0.629734;0.176996;0.741922
29294;8.674272;1.375520;-2.013810;0.653051;0.038021;0.203995;-0.803711;0.139160;0.394531;-0.151953;0.629062;0.179940;0.740819
29295;9.275642;1.581367;-2.611914;0.595648;0.082449;0.219770;-0.797607;0.137451;0.382568;-0.156603;0.628198;0.182389;0.739985
29296;9.920937;1.949193;-2.376724;0.537325;0.151173;0.218189;-0.804688;0.146240;0.382080;-0.161031;0.626960;0.184398;0.739586
29297;10.348725;2.377160;-1.971177;0.466327;0.158972;0.201012;-0.802734;0.152832;0.388672;-0.164997;0.625732;0.186050;0.739338
29298;10.917929;2.694402;-1.588809;0.369858;0.064758;0.214595;-0.799805;0.154541;0.378174;-0.168397;0.625233;0.187169;0.738711
29299;12.143947;2.678148;-0.948277;0.264448;-0.057171;0.231782;-0.800049;0.161621;0.374512;-0.171164;0.625647;0.187727;0.737582
29300;16.589942;1.873217;1.903530;0.242185;-0.058141;0.027704;-0.801758;0.161865;0.380127;-0.172564;0.625774;0.189218;0.736766
29301;15.144502;1.266529;2.108129;1.008201;-0.472687;-0.106932;-0.797363;0.166504;0.376953;-0.176465;0.627109;0.196702;0.732737
29302;11.614330;-0.406368;0.376927;1.089956;-0.364326;0.225967;-0.788330;0.183350;0.389648;-0.182991;0.628143;0.202768;0.728585
29303;10.114316;0.625758;0.994923;0.858347;-0.257838;0.311367;-0.786133;0.185303;0.384766;-0.188990;0.628993;0.206797;0.725180
29304;10.391165;1.952594;0.818576;0.717006;-0.395862;0.278774;-0.784424;0.188965;0.393799;-0.193791;0.630796;0.210346;0.721316
29305;10.569630;2.461303;1.426955;0.614970;-0.473136;0.251999;-0.782471;0.197754;0.392822;-0.197750;0.633154;0.213539;0.717225
29306;9.833660;2.275446;2.229708;0.439726;-0.385054;0.162142;-0.780029;0.206543;0.395996;-0.200404;0.635086;0.216010;0.714034
29307;8.780476;2.464479;2.166766;0.283406;-0.238466;0.104212;-0.780762;0.205811;0.401855;-0.202149;0.636292;0.217608;0.711980
29308;8.480244;2.191479;1.760959;0.186620;-0.114246;0.116615;-0.779053;0.216797;0.400635;-0.203669;0.636942;0.218356;0.710735
29309;9.496335;1.174176;1.749668;0.268894;-0.027440;0.124023;-0.774414;0.211914;0.397705;-0.205841;0.636947;0.219407;0.709781
29310;11.015789;-0.114003;1.900450;0.419855;-0.041186;0.175159;-0.777100;0.217285;0.405518;-0.209073;0.636860;0.221097;0.708388
29311;11.420173;-0.691781;1.399486;0.499573;-0.115708;0.266289;-0.770264;0.224121;0.399902;-0.213126;0.637236;0.222894;0.706276
29312;10.645870;-0.238049;0.796243;0.514836;-0.141842;0.300531;-0.768066;0.232666;0.392334;-0.217412;0.637783;0.224636;0.703920
29313;10.038845;0.386672;0.473485;0.453385;-0.115740;0.289195;-0.760498;0.249023;0.408203;-0.221352;0.638247;0.226023;0.701825
29314;9.687775;0.718502;0.565489;0.320849;-0.066400;0.270637;-0.761230;0.247314;0.401855;-0.224567;0.638640;0.226634;0.700247
29315;9.554459;0.854168;0.593924;0.221095;-0.034247;0.245647;-0.764893;0.254639;0.397217;-0.227154;0.638964;0.226735;0.699083
29316;9.393879;0.906386;0.497969;0.214947;-0.027535;0.258882;-0.763916;0.248047;0.404541;-0.229803;0.639278;0.226716;0.697935
29317;9.069189;0.478419;0.284608;0.240438;-0.012490;0.317282;-0.755615;0.258545;0.392578;-0.232937;0.639570;0.226500;0.696698
29318;8.578849;-0.188742;0.255252;0.244951;0.009650;0.349282;-0.755859;0.264160;0.392822;-0.236343;0.639769;0.226097;0.695498
29319;8.076725;-0.534382;0.505903;0.253932;0.022572;0.328563;-0.758789;0.279297;0.398438;-0.239689;0.639833;0.225825;0.694381
29320;7.683965;-0.828293;0.629433;0.248411;0.012005;0.286913;-0.745605;0.275879;0.390869;-0.242752;0.639892;0.225759;0.693284
29321;7.535872;-0.994363;0.278240;0.274586;0.001821;0.250548;-0.752197;0.279541;0.389404;-0.245705;0.639880;0.226050;0.692159
29322;7.487922;-1.150496;-0.201022;0.376398;-0.001284;0.216347;-0.754395;0.285645;0.388916;-0.248992;0.639599;0.227113;0.690894
29323;7.505997;-1.103539;-0.417288;0.515793;-0.008090;0.163597;-0.741943;0.300049;0.393799;-0.252705;0.638961;0.229266;0.689424
29324;7.548356;-0.882783;-0.474010;0.651874;-0.025927;0.109539;-0.743408;0.300537;0.382324;-0.256811;0.638044;0.232514;0.687667
29325;7.437399;-0.488511;-0.212642;0.705767;-0.032959;0.050396;-0.745605;0.298584;0.380615;-0.260829;0.636890;0.236396;0.685899
29326;7.452516;-0.330228;-0.197995;0.614337;-0.098180;0.015878;-0.750244;0.304932;0.387207;-0.264004;0.636224;0.240067;0.684024
29327;7.561321;-0.213906;-0.545688;0.479837;-0.175344;0.001167;-0.738037;0.299805;0.377686;-0.266228;0.636262;0.243210;0.682013
29328;7.924287;-0.216058;-1.759896;0.349732;-0.245598;-0.001441;-0.740723;0.314453;0.376709;-0.267606;0.636963;0.245783;0.679894
29329;9.648224;-0.164149;-3.053542;0.335236;-0.234972;0.002377;-0.729492;0.314697;0.385498;-0.268985;0.637631;0.248235;0.677830
29330;11.896704;-0.282333;-2.295887;0.613940;-0.112801;0.022474;-0.736328;0.319824;0.374268;-0.272184;0.637039;0.251869;0.675766
29331;12.246395;-0.933451;-2.357024;0.839055;-0.061476;0.068668;-0.732666;0.322021;0.383301;-0.276946;0.635688;0.256412;0.673391
29332;11.798572;-1.284740;-2.857325;0.761542;-0.103577;0.065511;-0.733398;0.320312;0.374268;-0.281147;0.634751;0.260609;0.670918
29333;12.615427;-1.060405;-3.201383;0.587682;-0.125595;0.015968;-0.736328;0.328369;0.370850;-0.284094;0.634196;0.264146;0.668814
29334;16.706976;0.041500;-0.345382;0.302208;0.103897;0.089534;-0.734375;0.329834;0.372559;-0.286467;0.633187;0.265162;0.668356
29335;18.402772;2.928092;1.918395;-0.145921;0.024313;0.212056;-0.729492;0.330811;0.378418;-0.286970;0.633973;0.263219;0.668163
29336;15.341952;5.223457;1.113382;-0.352492;-0.082398;0.066457;-0.730957;0.342041;0.375977;-0.285334;0.635529;0.261149;0.668198
29337;10.294441;2.952375;1.943638;-0.399029;-0.182736;-0.006574;-0.734375;0.330566;0.378174;-0.282860;0.637568;0.259463;0.667964
29338;8.385465;-0.454609;2.279245;-0.061382;-0.320767;-0.036230;-0.727295;0.333008;0.384033;-0.281680;0.639501;0.260136;0.666351
29339;9.134522;-2.265971;2.495788;0.180067;-0.187975;-0.052870;-0.722900;0.324219;0.386475;-0.281990;0.640101;0.261919;0.664944
29340;10.376470;-1.758932;3.137233;0.347227;-0.093805;-0.047818;-0.715088;0.320557;0.386719;-0.283395;0.639799;0.264362;0.663670
29341;10.301794;-1.420629;2.620812;0.466931;-0.056326;0.008541;-0.717285;0.344482;0.377197;-0.285834;0.639124;0.267066;0.662190
29342;9.689870;-1.194926;2.173268;0.602718;0.092788;0.099032;-0.728027;0.337402;0.380371;-0.289871;0.637476;0.269681;0.660962
29343;9.595251;-0.154613;2.062114;0.751182;0.215012;0.143435;-0.721924;0.347900;0.374268;-0.295152;0.634882;0.272556;0.659942
29344;9.941264;0.857796;1.998041;0.715038;0.221033;0.107197;-0.717285;0.350098;0.364990;-0.300062;0.632242;0.275393;0.659084
29345;10.205401;1.056986;1.691079;0.513217;0.130117;-0.005530;-0.729492;0.358887;0.358398;-0.303069;0.630325;0.277932;0.658478
29346;9.890219;0.583839;1.552323;0.316309;0.069253;-0.094168;-0.721924;0.355225;0.362061;-0.304422;0.629011;0.280012;0.658229
29347;9.552655;-0.033092;0.879066;0.238790;0.047041;-0.126381;-0.723389;0.353271;0.355957;-0.305119;0.627959;0.281878;0.658114
29348;9.354235;-0.242911;0.585724;0.342433;0.099655;-0.131603;-0.720459;0.358154;0.353760;-0.306457;0.626325;0.284206;0.658049
29349;9.034394;-0.087411;0.436697;0.475848;0.139209;-0.121054;-0.728271;0.357910;0.342529;-0.308653;0.624156;0.287105;0.657825
29350;8.886891;0.250750;0.357527;0.562048;0.185697;-0.117217;-0.721436;0.355469;0.339111;-0.311422;0.621484;0.290336;0.657631
29351;8.708457;0.607125;0.276215;0.601550;0.220759;-0.125780;-0.720703;0.360352;0.334717;-0.314412;0.618500;0.293719;0.657519
29352;8.289327;0.924577;0.180023;0.600988;0.228222;-0.146598;-0.725586;0.361572;0.330322;-0.317305;0.615413;0.297177;0.657473
29353;7.986406;1.199874;0.046499;0.542939;0.216289;-0.181702;-0.728027;0.361084;0.324707;-0.319664;0.612438;0.300521;0.657588
29354;7.874433;1.520671;-0.171071;0.447861;0.192521;-0.197670;-0.723389;0.355713;0.314941;-0.321382;0.609790;0.303484;0.657850
29355;7.751509;1.740782;-0.336086;0.321654;0.169469;-0.198714;-0.732910;0.355957;0.315430;-0.322393;0.607590;0.305822;0.658309
29356;7.710046;1.700056;-0.550662;0.162156;0.168679;-0.165657;-0.735107;0.362793;0.318604;-0.322771;0.605903;0.307118;0.659074
29357;7.645679;1.382143;-0.633952;-0.020437;0.181214;-0.099478;-0.728027;0.357910;0.317383;-0.322634;0.604812;0.307046;0.660176
29358;7.719340;1.140843;-0.224440;-0.190625;0.247394;-0.025849;-0.735352;0.357178;0.310791;-0.322208;0.603998;0.305490;0.661849
29359;7.732732;0.954545;0.555650;-0.306570;0.283968;0.052910;-0.732422;0.359375;0.302979;-0.321728;0.603479;0.302803;0.663788
29360;7.553391;0.905975;1.012352;-0.295390;0.311606;0.126853;-0.735596;0.360352;0.305908;-0.321787;0.602953;0.299731;0.665629
29361;7.281658;0.764250;0.567478;-0.182059;0.291302;0.170219;-0.741455;0.353760;0.308838;-0.322592;0.602345;0.297116;0.666961
29362;7.162925;0.226798;-0.367146;-0.279440;0.091850;0.165509;-0.742920;0.363281;0.303711;-0.322366;0.603094;0.294513;0.667547
29363;8.043513;-0.087790;-1.072566;-0.488226;-0.120689;0.120991;-0.736328;0.362793;0.309326;-0.320346;0.605459;0.291549;0.667681
29364;9.468502;-0.561783;-2.072271;-0.513944;-0.246873;0.090255;-0.729980;0.351318;0.315674;-0.317710;0.608514;0.288928;0.667302
29365;11.820817;-0.936393;-1.770650;-0.495943;-0.260816;0.036725;-0.725342;0.353516;0.327148;-0.314803;0.611462;0.286705;0.666944
29366;12.963926;-0.661236;-2.050273;-0.505609;-0.296250;-0.002304;-0.725586;0.343994;0.321533;-0.311549;0.614531;0.284717;0.666502
29367;12.690507;0.065507;-2.576180;-0.487889;-0.316994;0.037444;-0.721191;0.355469;0.332520;-0.308551;0.617731;0.282681;0.665805
29368;13.423000;0.522702;-1.378026;-0.517424;-0.368459;0.107904;-0.715820;0.344238;0.347412;-0.305682;0.621452;0.280251;0.664692
29369;15.558843;0.240515;0.596633;-0.577027;-0.553078;0.047898;-0.713135;0.343262;0.348877;-0.301702;0.626192;0.278255;0.662897
29370;17.142031;-0.666101;3.046783;-0.473446;-0.575945;-0.179010;-0.710693;0.341064;0.353027;-0.296954;0.630233;0.278070;0.661287
29371;14.787153;-1.267171;3.954519;-0.216745;-0.698060;-0.304822;-0.708252;0.341797;0.368164;-0.292567;0.633990;0.280248;0.658727
29372;9.197344;-0.238037;2.768153;-0.320280;-0.621650;-0.107011;-0.700195;0.335449;0.376709;-0.288883;0.638022;0.280606;0.656304
29373;7.285817;0.619054;2.287194;-0.574142;-0.351496;-0.043605;-0.705078;0.324463;0.383057;-0.284810;0.641314;0.278571;0.655742
29374;8.499523;1.717050;1.991315;-0.560000;-0.289549;-0.217224;-0.701416;0.321777;0.389404;-0.279985;0.643807;0.277381;0.655882
29375;9.930350;2.600459;1.527408;-0.396704;-0.270863;-0.452822;-0.693848;0.312744;0.392090;-0.274794;0.645250;0.278299;0.656270
29376;10.994073;2.831860;1.114675;-0.378379;-0.207721;-0.500285;-0.703613;0.306885;0.401123;-0.269580;0.646175;0.279422;0.657045
29377;11.355243;2.145942;0.748448;-0.399905;-0.095706;-0.394790;-0.702393;0.303711;0.406250;-0.265080;0.646760;0.279603;0.658222
29378;11.710525;0.908910;1.002280;-0.272470;-0.010505;-0.203437;-0.695068;0.298096;0.408203;-0.262515;0.647031;0.279264;0.659127
29379;11.388464;-0.047001;1.559107;-0.139551;0.022068;0.001227;-0.706787;0.298584;0.405518;-0.261862;0.647307;0.278476;0.659450
29380;10.210047;-0.433582;1.297427;-0.035684;-0.002973;0.103316;-0.702393;0.309326;0.398926;-0.262272;0.647723;0.277760;0.659180
29381;9.379132;-0.507661;0.952029;-0.005560;-0.025874;0.135891;-0.694824;0.301270;0.399902;-0.262984;0.648271;0.277088;0.658640
29382;8.893457;-0.176201;0.699408;-0.028428;-0.048029;0.136459;-0.698975;0.303223;0.397461;-0.263504;0.648998;0.276320;0.658038
29383;8.958440;0.138128;0.418236;-0.035183;-0.057480;0.152315;-0.691650;0.306641;0.396484;-0.264054;0.649825;0.275449;0.657367
29384;8.703362;-0.070760;0.209396;-0.017175;-0.049912;0.200731;-0.690918;0.307373;0.406494;-0.264986;0.650681;0.274397;0.656584
29385;8.076420;-0.689990;0.034536;0.032293;-0.031307;0.243012;-0.694092;0.312744;0.404053;-0.266451;0.651427;0.273335;0.655694
29386;7.515623;-1.413898;0.082340;0.134227;0.012147;0.248098;-0.692871;0.315430;0.392822;-0.268599;0.651713;0.272707;0.654794
29387;7.402448;-1.722817;0.248661;0.259593;0.063161;0.252860;-0.695312;0.317871;0.406250;-0.271572;0.651443;0.272621;0.653873
29388;7.210689;-1.659905;0.149484;0.342393;0.070728;0.251241;-0.691162;0.319336;0.397461;-0.274983;0.650946;0.272955;0.652801
29389;7.075224;-1.497515;-0.265479;0.390731;0.054617;0.224338;-0.686279;0.328369;0.390137;-0.278473;0.650353;0.273731;0.651586
29390;7.129878;-1.180146;-0.467283;0.413917;0.026764;0.187676;-0.679688;0.336670;0.395752;-0.281835;0.649762;0.274897;0.650238
29391;7.215999;-0.925050;-0.458447;0.427989;0.002269;0.141285;-0.686279;0.343506;0.393799;-0.284959;0.649165;0.276434;0.648820
29392;7.342630;-0.729724;-0.405686;0.462130;-0.001482;0.087753;-0.689453;0.336426;0.377441;-0.287964;0.648370;0.278451;0.647425
29393;7.625407;-0.619748;-0.217351;0.499468;0.020862;0.052886;-0.677734;0.348877;0.384277;-0.291025;0.647265;0.280798;0.646146
29394;7.879245;-0.641664;-0.260321;0.481745;0.012542;0.046549;-0.687256;0.350586;0.376221;-0.293939;0.646235;0.283095;0.644855
29395;8.273266;-0.684904;-0.762436;0.390658;-0.036365;0.045650;-0.681885;0.351807;0.372559;-0.296236;0.645673;0.285024;0.643515
29396;9.375872;-0.738634;-2.536232;0.297153;-0.137525;0.023167;-0.680908;0.348633;0.370850;-0.297666;0.645828;0.286818;0.641901
29397;11.876140;-0.299597;-2.484550;0.464536;-0.097758;-0.027750;-0.680420;0.359863;0.369873;-0.299812;0.645227;0.289677;0.640220
29398;12.763264;-0.838602;-1.987222;0.709948;0.040471;0.053493;-0.685547;0.364990;0.361572;-0.304050;0.643457;0.293063;0.638460
29399;11.535784;-1.233856;-2.029823;0.674686;0.034156;0.059464;-0.681396;0.364990;0.363281;-0.308105;0.641800;0.296237;0.636716
29400;10.954340;-1.004997;-2.818098;0.512014;-0.132085;-0.063238;-0.676514;0.366211;0.360840;-0.310208;0.641135;0.299613;0.634783
29401;11.311352;-0.774056;-4.261662;0.362716;-0.279480;-0.150334;-0.679443;0.373291;0.350098;-0.310683;0.641407;0.303042;0.632644
29402;13.037762;-0.861386;-4.602982;0.398591;-0.230573;-0.190539;-0.672852;0.376953;0.351562;-0.311278;0.641204;0.306763;0.630761
29403;17.208644;0.651526;1.378729;0.219796;0.333677;-0.025337;-0.679443;0.367188;0.356445;-0.313221;0.638923;0.307191;0.631905
29404;17.531141;3.198592;2.221748;-0.034893;0.180292;0.085980;-0.683838;0.375488;0.356689;-0.313975;0.638402;0.306068;0.632602
29405;15.185195;5.274722;4.187375;-0.091460;0.206288;0.230894;-0.682861;0.370361;0.357422;-0.315268;0.638252;0.303814;0.633196
29406;7.936459;2.699507;3.719591;-0.093420;-0.066606;0.180100;-0.686279;0.371582;0.348389;-0.315577;0.639412;0.302534;0.632485
29407;6.675856;0.703882;3.233342;-0.036333;0.025907;-0.005542;-0.679688;0.367920;0.346924;-0.315454;0.639449;0.302308;0.632616
29408;7.798449;-1.031543;4.343155;0.045673;0.104952;-0.021270;-0.690918;0.377197;0.347656;-0.315882;0.638816;0.302385;0.633006
29409;8.698109;-3.217785;3.940610;0.094510;-0.103255;0.069966;-0.687500;0.375977;0.341797;-0.316534;0.639377;0.302778;0.631925
29410;9.374803;-4.282863;2.435791;0.184690;-0.062846;0.127836;-0.677246;0.375244;0.350342;-0.318074;0.639628;0.303221;0.630684
29411;9.786690;-2.839925;1.378303;0.354206;0.142346;0.114018;-0.675781;0.382324;0.347656;-0.320942;0.638332;0.304054;0.630142
29412;10.377400;-0.275345;1.179851;0.363582;0.204678;0.068680;-0.677002;0.381348;0.331543;-0.323785;0.636562;0.305004;0.630020
29413;10.562090;1.511879;0.822111;0.259010;0.072861;0.010574;-0.678711;0.386719;0.339600;-0.325440;0.635596;0.306076;0.629622
29414;9.702506;1.802036;0.218565;0.139004;-0.036607;-0.048735;-0.678711;0.383789;0.334961;-0.325854;0.635390;0.307117;0.629109
29415;9.231040;1.233844;0.006796;0.039532;-0.045570;-0.104476;-0.677246;0.380371;0.340088;-0.325427;0.635350;0.307961;0.628957
29416;9.153549;0.634424;0.204352;0.011426;0.000979;-0.147737;-0.677246;0.381348;0.335205;-0.324732;0.635037;0.308755;0.629243
29417;9.197969;0.169731;0.524747;0.034835;0.030338;-0.197410;-0.676270;0.375732;0.337646;-0.323992;0.634368;0.309866;0.629753
29418;9.178585;0.089999;0.514182;0.030990;0.058746;-0.251809;-0.687012;0.382324;0.332520;-0.323007;0.633423;0.311159;0.630573
29419;9.044968;0.356065;0.261596;-0.052622;0.083743;-0.282363;-0.687988;0.371826;0.338379;-0.321506;0.632476;0.312120;0.631815
29420;8.862993;0.683225;-0.031473;-0.156513;0.092318;-0.300024;-0.684082;0.365234;0.334717;-0.319357;0.631725;0.312584;0.633425
29421;8.574265;1.148438;-0.326449;-0.216209;0.112806;-0.316737;-0.690918;0.365967;0.331055;-0.316862;0.630971;0.312769;0.635335
29422;8.265564;1.379925;-0.537369;-0.251174;0.146021;-0.323721;-0.689697;0.367676;0.332520;-0.314247;0.630097;0.312729;0.637516
29423;8.118400;1.344150;-0.624007;-0.315038;0.173197;-0.310470;-0.701172;0.354248;0.334961;-0.311444;0.629274;0.312210;0.639955
29424;7.995945;1.163301;-0.600577;-0.406202;0.182734;-0.260572;-0.706543;0.351318;0.332275;-0.308417;0.628761;0.310900;0.642557
29425;8.074250;0.825114;-0.637367;-0.520761;0.208157;-0.177573;-0.698975;0.344482;0.330566;-0.305306;0.628600;0.308482;0.645360
29426;8.259416;0.455284;-0.537436;-0.631827;0.254465;-0.098847;-0.698242;0.345703;0.334229;-0.302149;0.628659;0.304930;0.648468
29427;8.240414;0.532537;-0.269979;-0.702945;0.301734;-0.034116;-0.711914;0.340088;0.332520;-0.299090;0.628787;0.300529;0.651809
29428;7.895120;0.743655;0.122719;-0.714508;0.293469;0.028005;-0.706299;0.332275;0.339111;-0.296266;0.629111;0.295750;0.654964
29429;7.536106;0.974871;0.295001;-0.637257;0.233250;0.079924;-0.705078;0.337646;0.336426;-0.293947;0.629695;0.291238;0.657465
29430;7.568745;0.708795;-0.352286;-0.461021;0.161591;0.116786;-0.709229;0.332031;0.342529;-0.292610;0.630300;0.287692;0.659041
29431;8.385636;-0.278089;-1.601632;-0.439409;0.000937;0.151737;-0.712402;0.327881;0.343262;-0.291154;0.631821;0.284447;0.659638
29432;10.254817;-0.934214;-1.467035;-0.654036;-0.097720;0.128544;-0.711670;0.331543;0.341797;-0.288191;0.634334;0.280375;0.660270
29433;11.055524;-0.033243;-1.304146;-0.672261;-0.178707;0.040886;-0.711426;0.326660;0.346924;-0.284491;0.637092;0.276883;0.660692
29434;10.955668;0.471339;-1.552033;-0.504632;-0.284588;0.030013;-0.694824;0.326416;0.348633;-0.281362;0.639994;0.274612;0.660175
29435;11.337874;0.046994;-1.585773;-0.423574;-0.353559;0.085735;-0.693848;0.321045;0.356689;-0.278839;0.643193;0.272670;0.658941
29436;13.487593;-0.548707;0.091801;-0.501058;-0.390283;0.109231;-0.695557;0.319092;0.357422;-0.275909;0.646821;0.270235;0.657624
29437;16.233301;-1.805902;1.470939;-0.507461;-0.551862;-0.024905;-0.694092;0.316162;0.368164;-0.271845;0.651013;0.268862;0.655740
29438;16.488788;-3.737687;1.925389;0.000428;-0.764994;-0.215592;-0.700684;0.315430;0.379150;-0.268994;0.654773;0.271755;0.651970
29439;11.475200;-1.675257;2.202234;0.359804;-0.802974;-0.176578;-0.688477;0.327393;0.379639;-0.268208;0.657992;0.276444;0.647062
29440;8.304799;1.493708;1.280212;0.103531;-0.702366;-0.095994;-0.682617;0.312500;0.392822;-0.266719;0.661380;0.279103;0.643070
29441;9.398762;2.580510;1.637372;-0.404703;-0.509705;-0.156597;-0.678223;0.315674;0.402100;-0.262473;0.664729;0.278878;0.641460
29442;10.681604;3.795329;1.909485;-0.580260;-0.378622;-0.343739;-0.680664;0.309570;0.410645;-0.256570;0.667292;0.278473;0.641363
29443;10.888413;3.844653;1.152102;-0.499234;-0.253359;-0.435980;-0.685547;0.302734;0.415039;-0.250903;0.668768;0.278739;0.641951
29444;10.821082;2.331428;0.828539;-0.463587;-0.092068;-0.402960;-0.682129;0.287842;0.412598;-0.245978;0.669356;0.278674;0.643271
29445;10.909505;0.443518;0.759512;-0.457546;-0.050294;-0.290547;-0.672607;0.285400;0.419678;-0.241771;0.669953;0.277916;0.644572
29446;11.075628;-0.525764;0.478620;-0.235088;-0.078312;-0.122939;-0.685791;0.281494;0.414307;-0.239642;0.670633;0.277470;0.644852
29447;10.246014;-0.936387;0.396801;0.117372;-0.096349;0.009335;-0.683838;0.282227;0.422852;-0.240155;0.671002;0.278218;0.643954
29448;9.705760;-0.613153;0.439906;0.320886;-0.084523;0.063666;-0.677979;0.292725;0.420654;-0.242112;0.671032;0.279712;0.642541
29449;9.358857;-0.075297;0.220213;0.347327;-0.043609;0.068376;-0.675781;0.281738;0.411133;-0.244353;0.670789;0.281248;0.641275
29450;9.173572;0.382561;0.282123;0.261992;0.029977;0.073394;-0.686035;0.293457;0.412598;-0.246294;0.670338;0.282130;0.640616
29451;8.943432;0.479230;0.237926;0.143509;0.096231;0.081274;-0.687744;0.297607;0.413086;-0.247784;0.669787;0.282209;0.640583
29452;8.737328;0.236736;0.031711;0.088148;0.151495;0.113683;-0.681885;0.298584;0.411621;-0.249264;0.669131;0.281694;0.640921
29453;8.433990;-0.287554;-0.029642;0.091266;0.208890;0.142810;-0.684570;0.296143;0.408691;-0.251048;0.668230;0.280907;0.641510
29454;8.076763;-0.790267;0.062433;0.123263;0.233134;0.146030;-0.683105;0.303223;0.398926;-0.253075;0.667138;0.280213;0.642153
29455;8.027024;-1.219425;-0.011007;0.178838;0.206725;0.150749;-0.678223;0.304688;0.403809;-0.255390;0.666071;0.279856;0.642500
29456;7.920100;-1.372735;-0.313849;0.249350;0.179476;0.170674;-0.687500;0.305420;0.400391;-0.258122;0.665050;0.279805;0.642488
29457;7.753014;-1.323391;-0.713161;0.330046;0.142961;0.165683;-0.690186;0.312012;0.391113;-0.261185;0.664034;0.280283;0.642093
29458;7.699512;-1.150016;-1.127605;0.411427;0.109254;0.138294;-0.687744;0.315674;0.393799;-0.264483;0.662943;0.281429;0.641368
29459;7.899357;-0.886484;-1.291695;0.469727;0.096686;0.096202;-0.687988;0.317871;0.383301;-0.267835;0.661690;0.283130;0.640522
29460;8.208437;-0.561806;-1.057018;0.500256;0.077295;0.015610;-0.693848;0.316895;0.385498;-0.270884;0.660267;0.285485;0.639663
29461;8.290144;-0.366988;-0.800964;0.530180;0.076931;-0.072913;-0.693115;0.323486;0.373779;-0.273600;0.658565;0.288463;0.638924
29462;8.136396;-0.448943;-0.359767;0.543734;0.090880;-0.137509;-0.687500;0.331299;0.378662;-0.276101;0.656577;0.291853;0.638354
29463;7.807994;-0.623476;0.406793;0.478616;0.046252;-0.141596;-0.700928;0.329346;0.368164;-0.278105;0.654961;0.295007;0.637694
29464;7.501791;-0.440820;-0.228468;0.376294;-0.055116;-0.101962;-0.689941;0.327881;0.367432;-0.279513;0.654203;0.297636;0.636635
29465;8.559306;-0.111839;-2.502856;0.349632;-0.196059;-0.049778;-0.690918;0.333496;0.363770;-0.280692;0.654382;0.300155;0.634747
29466;10.914095;0.700270;-2.369198;0.503798;-0.208470;-0.002012;-0.700928;0.331543;0.374512;-0.282944;0.654369;0.303267;0.632276
29467;11.828781;0.569362;-1.575042;0.609228;-0.122627;0.067284;-0.689697;0.337158;0.366699;-0.286314;0.653832;0.306322;0.629837
29468;11.391489;-0.025055;-1.435099;0.486265;-0.102318;0.071716;-0.689941;0.341797;0.365723;-0.289099;0.653471;0.308668;0.627791
29469;10.508149;-0.514204;-2.592495;0.364701;-0.219727;-0.007100;-0.679199;0.346924;0.361328;-0.290505;0.653805;0.311085;0.625597
29470;11.994474;-0.573249;-3.160944;0.501774;-0.127931;-0.065094;-0.686279;0.348145;0.355469;-0.292604;0.653162;0.314319;0.623671
29471;15.242639;0.403743;-0.482288;0.573536;0.095884;0.086463;-0.685547;0.356445;0.366943;-0.296462;0.651564;0.316551;0.622390
29472;18.852746;2.857249;0.593897;0.193384;0.246736;0.270167;-0.691162;0.354004;0.362061;-0.299579;0.650612;0.315413;0.622472
29473;17.354623;6.307428;1.126562;-0.213842;0.039387;0.443575;-0.690674;0.355225;0.358643;-0.300826;0.652196;0.311732;0.622067
29474;9.580117;4.004356;2.405537;-0.344599;-0.257612;0.472682;-0.684814;0.365479;0.362549;-0.300738;0.655697;0.307965;0.620303
29475;6.309900;-0.423826;1.718217;-0.245681;-0.370822;0.308962;-0.679443;0.361572;0.366699;-0.300061;0.659087;0.305896;0.618058
29476;7.621022;-2.557619;2.179939;0.003983;-0.044770;0.091871;-0.676758;0.367188;0.362549;-0.300454;0.659614;0.305477;0.617512
29477;9.803979;-3.737810;2.730493;0.271770;0.119392;0.069559;-0.685547;0.369873;0.367920;-0.302645;0.658557;0.306158;0.617233
29478;9.867979;-3.727891;2.049134;0.533423;0.191548;0.192487;-0.683594;0.361328;0.364014;-0.307060;0.656785;0.307293;0.616376
29479;9.757697;-2.127750;1.220678;0.704003;0.370261;0.238191;-0.687256;0.378662;0.353516;-0.313054;0.653769;0.308548;0.615939
29480;10.498593;-0.009207;1.500113;0.682676;0.494548;0.253751;-0.682617;0.385986;0.342529;-0.319356;0.650160;0.309296;0.616149
29481;10.764474;1.425305;1.746271;0.459963;0.385461;0.200923;-0.684814;0.394043;0.335693;-0.323891;0.647539;0.309466;0.616456
29482;10.123620;1.987084;1.255977;0.164592;0.137614;0.067799;-0.686768;0.391357;0.330078;-0.325509;0.646630;0.309506;0.616538
29483;9.569185;1.285829;0.745342;-0.101829;-0.039533;-0.052389;-0.684082;0.394287;0.334473;-0.324612;0.647038;0.309306;0.616684
29484;9.608295;0.206981;0.372699;-0.238003;-0.062617;-0.157818;-0.690186;0.384521;0.340332;-0.322378;0.647661;0.309035;0.617337
29485;9.493621;-0.482534;0.278123;-0.206133;-0.020706;-0.218710;-0.699219;0.391113;0.339111;-0.320075;0.647834;0.309119;0.618311
29486;9.412447;-0.582872;0.271895;-0.138836;0.037810;-0.237954;-0.697998;0.385742;0.342529;-0.318228;0.647451;0.309528;0.619460
29487;9.224710;-0.274672;0.097645;-0.068567;0.094125;-0.269186;-0.695068;0.372559;0.339355;-0.316726;0.646517;0.310302;0.620816
29488;8.959502;0.208055;-0.224741;-0.028862;0.115836;-0.300296;-0.703613;0.376221;0.335205;-0.315311;0.645289;0.311375;0.622275
29489;8.625756;0.778182;-0.458945;-0.049443;0.121198;-0.319497;-0.694336;0.377441;0.337158;-0.313733;0.644015;0.312458;0.623849
29490;8.394835;1.172315;-0.622367;-0.120928;0.120730;-0.342277;-0.706055;0.372803;0.330566;-0.311654;0.642868;0.313291;0.625653
29491;8.225908;1.267073;-0.837361;-0.200960;0.105339;-0.341602;-0.707031;0.365479;0.331299;-0.309121;0.641990;0.313758;0.627574
29492;8.154728;1.210973;-1.038831;-0.293092;0.114535;-0.309035;-0.713867;0.357422;0.337646;-0.306270;0.641386;0.313531;0.629699
29493;8.213942;0.991769;-1.191421;-0.389168;0.133794;-0.232844;-0.712402;0.351807;0.339600;-0.303319;0.641132;0.312316;0.631986
29494;8.441687;0.908150;-1.328884;-0.463481;0.166214;-0.143939;-0.706787;0.358154;0.333984;-0.300514;0.641118;0.310147;0.634403
29495;8.451565;0.783877;-1.396359;-0.490709;0.177228;-0.034656;-0.712646;0.348145;0.339844;-0.298224;0.641359;0.307263;0.636640
29496;8.295532;0.738861;-1.002654;-0.531153;0.171403;0.091778;-0.714355;0.345459;0.349609;-0.296319;0.642063;0.303464;0.638639
29497;7.750239;0.876651;-0.645175;-0.564177;0.062271;0.185536;-0.712402;0.344482;0.336914;-0.294422;0.643668;0.299226;0.639899
29498;7.418542;0.808753;-0.504347;-0.484258;-0.015191;0.229450;-0.713135;0.344727;0.346436;-0.293046;0.645552;0.295411;0.640406
29499;7.755599;-0.002186;-0.299565;-0.360390;-0.084901;0.232945;-0.711182;0.341064;0.352539;-0.292150;0.647517;0.292383;0.640220
29500;8.640460;-0.635004;-0.698211;-0.373375;-0.144356;0.205228;-0.710205;0.342285;0.351807;-0.290859;0.649768;0.289553;0.639814
29501;9.907527;-0.734426;-1.522756;-0.361138;-0.162896;0.164342;-0.704102;0.352051;0.359131;-0.289393;0.651967;0.287071;0.639360
29502;11.018452;-0.579472;-1.135617;-0.320663;-0.107158;0.097831;-0.714600;0.346924;0.364502;-0.287952;0.653598;0.285050;0.639250
29503;10.884202;-0.127501;-0.980763;-0.230426;-0.167880;0.058078;-0.712402;0.350586;0.364990;-0.286611;0.655249;0.283844;0.638698
29504;10.453840;-0.009296;-1.332174;-0.293270;-0.227579;0.078285;-0.703125;0.351562;0.371338;-0.284926;0.657395;0.282362;0.637903
29505;11.485373;0.000006;-0.957558;-0.563543;-0.255698;0.082355;-0.700928;0.337891;0.371582;-0.281709;0.660334;0.279482;0.637565
29506;13.714096;-0.325124;-0.319312;-0.777061;-0.392882;0.015397;-0.701904;0.344482;0.378174;-0.276600;0.664329;0.276125;0.637114
29507;16.511529;-1.338449;-0.210259;-0.716302;-0.437132;-0.186004;-0.694824;0.333252;0.392578;-0.270710;0.667891;0.274349;0.636687
29508;15.288342;-1.510495;0.910716;-0.115286;-0.533446;-0.311850;-0.705566;0.334717;0.401611;-0.267213;0.670320;0.276621;0.634625
29509;10.927538;0.056593;1.479951;0.136284;-0.551919;-0.129099;-0.689209;0.332031;0.399658;-0.266060;0.672680;0.279251;0.631453
29510;9.147592;1.785481;0.732550;-0.126427;-0.442366;0.026953;-0.690918;0.334717;0.405029;-0.264520;0.675387;0.279388;0.629145
29511;8.843249;2.407727;1.337277;-0.543860;-0.345705;-0.005503;-0.683350;0.326904;0.416748;-0.260689;0.678410;0.277310;0.628411
29512;8.728727;2.191054;1.260257;-0.868303;-0.262114;-0.128747;-0.695068;0.322021;0.428223;-0.254512;0.681405;0.273997;0.629156
29513;8.868953;1.771278;1.365947;-1.048936;-0.115151;-0.234383;-0.691406;0.307373;0.429443;-0.247072;0.683719;0.270009;0.631331
29514;8.948353;1.651336;0.872176;-1.177566;0.005605;-0.293522;-0.691895;0.297363;0.440430;-0.238832;0.685464;0.265403;0.634554
29515;9.328282;1.068088;0.748279;-1.165527;0.083256;-0.303966;-0.701660;0.277100;0.439941;-0.230743;0.686685;0.260733;0.638153
29516;10.171604;-0.275465;0.869827;-0.959596;0.048682;-0.238682;-0.692871;0.281738;0.441406;-0.224065;0.687780;0.256813;0.640937
29517;11.013623;-1.235836;0.764397;-0.601272;-0.026435;-0.132935;-0.692383;0.278076;0.455322;-0.219912;0.688772;0.254391;0.642275
29518;10.883095;-1.538066;0.408349;-0.253929;-0.134357;-0.001033;-0.703613;0.266357;0.448975;-0.218194;0.689988;0.253232;0.642013
29519;10.287109;-1.086151;-0.237107;-0.071705;-0.153536;0.094655;-0.693115;0.274902;0.452393;-0.217978;0.691178;0.252515;0.641089
29520;9.805702;-0.316377;-0.299823;-0.098224;-0.085784;0.112794;-0.688965;0.269531;0.454346;-0.217873;0.692082;0.251446;0.640569
29521;9.544888;0.264782;-0.149941;-0.277792;-0.006954;0.076916;-0.685059;0.276855;0.458984;-0.216676;0.692826;0.249454;0.640950
29522;9.598350;0.433446;-0.283041;-0.412594;0.042634;0.052494;-0.692383;0.270020;0.456055;-0.214694;0.693482;0.246811;0.641929
29523;9.700116;0.232168;-0.456752;-0.420136;0.066378;0.077828;-0.697998;0.268066;0.463623;-0.212844;0.694069;0.243929;0.643012
