// Start Time: Unknown
// Update Rate: 60.0Hz
// Filter Profile: human (46.1)
// Firmware Version: 4.4.0
PacketCounter;Acc_X;Acc_Y;Acc_Z;Gyr_X;Gyr_Y;Gyr_Z;Mag_X;Mag_Y;Mag_Z;Quat_q0;Quat_q1;Quat_q2;Quat_q3
28597;0.398449;9.614629;0.919984;-0.005835;0.001809;-0.006803;0.132080;-0.639893;-0.523193;0.607035;0.535371;-0.407207;-0.423166
28598;0.411174;9.678065;0.880229;0.034323;0.004460;-0.001366;0.132324;-0.634277;-0.519287;0.606892;0.535565;-0.407300;-0.423037
28599;0.409849;9.691344;0.894545;-0.013066;0.002477;-0.001852;0.125244;-0.634521;-0.512939;0.606952;0.535514;-0.407231;-0.423080
28600;0.421655;9.749801;0.904913;-0.037777;0.005709;-0.002291;0.128418;-0.636230;-0.512207;0.607132;0.535351;-0.407059;-0.423194
28601;0.383151;9.697436;0.922557;-0.014402;0.010705;-0.008138;0.134766;-0.627686;-0.525146;0.607203;0.535344;-0.406919;-0.423236
28602;0.329667;9.660601;0.925776;-0.028103;0.003891;-0.004433;0.134033;-0.634521;-0.521729;0.607325;0.535231;-0.406781;-0.423335
28603;0.353140;9.666567;0.925888;-0.017905;-0.006398;-0.006287;0.129883;-0.637939;-0.519043;0.607359;0.535142;-0.406721;-0.423458
28604;0.368389;9.703634;0.856622;0.015081;-0.007755;0.002348;0.130371;-0.628906;-0.515625;0.607271;0.535186;-0.406821;-0.423431
28605;0.351438;9.710027;0.932594;-0.042278;-0.011970;-0.000011;0.127686;-0.640869;-0.515137;0.607412;0.534938;-0.406732;-0.423629
28606;0.412257;9.651588;0.953039;-0.081537;-0.017546;0.000366;0.122559;-0.639160;-0.522705;0.607709;0.534471;-0.406531;-0.423985
28607;0.442924;9.606635;0.973117;-0.032108;-0.004735;-0.002885;0.132080;-0.639648;-0.528076;0.607818;0.534310;-0.406427;-0.424132
28608;0.417741;9.630914;0.965622;0.025631;-0.001158;0.001688;0.132812;-0.636475;-0.519775;0.607701;0.534435;-0.406530;-0.424042
28609;0.447515;9.648234;0.951946;-0.006773;-0.001557;0.007050;0.130615;-0.635498;-0.517334;0.607748;0.534375;-0.406546;-0.424036
28610;0.432073;9.689506;0.973222;-0.026562;0.004206;0.010789;0.131836;-0.637207;-0.523926;0.607917;0.534220;-0.406482;-0.424050
28611;0.434696;9.675930;0.961756;-0.030476;-0.005842;0.009058;0.120850;-0.631348;-0.521484;0.608066;0.534013;-0.406448;-0.424129
28612;0.520653;9.636843;0.992431;-0.067824;-0.018524;0.014657;0.125488;-0.639893;-0.528076;0.608359;0.533550;-0.406375;-0.424362
28613;0.452952;9.595737;0.934237;-0.018531;0.014959;0.010650;0.123535;-0.632568;-0.521484;0.608538;0.533462;-0.406295;-0.424292
28614;0.307264;9.690133;0.818673;0.064212;0.011101;0.004278;0.124268;-0.632324;-0.528076;0.608314;0.533803;-0.406501;-0.423988
28615;0.387679;9.905067;1.002236;0.033541;-0.046576;0.012388;0.130615;-0.637939;-0.517578;0.608044;0.533771;-0.406927;-0.424005
28616;0.503608;9.794446;0.928818;-0.082590;-0.015063;0.004082;0.125244;-0.637695;-0.520752;0.608367;0.533299;-0.406742;-0.424315
28617;0.347927;9.612448;0.824696;-0.071910;0.012482;-0.002274;0.124512;-0.637451;-0.523193;0.608713;0.532994;-0.406438;-0.424493
28618;0.216321;9.731568;0.855776;0.043081;-0.035732;0.010725;0.134521;-0.642334;-0.523193;0.608419;0.533070;-0.406847;-0.424428
28619;0.358899;9.832804;0.832446;-0.005544;-0.074147;0.028540;0.127930;-0.626709;-0.518311;0.608256;0.532733;-0.407343;-0.424608
28620;0.514425;9.764064;0.841439;-0.153930;-0.083167;0.035262;0.114258;-0.631348;-0.520264;0.608744;0.531585;-0.407379;-0.425312
28621;0.559610;9.632627;1.025884;-0.170061;-0.057423;0.023629;0.116455;-0.630127;-0.526611;0.609333;0.530477;-0.407218;-0.426006
28622;0.515024;9.618087;1.049815;-0.042391;-0.038235;0.016419;0.123291;-0.631836;-0.521484;0.609408;0.530100;-0.407383;-0.426211
28623;0.530824;9.712022;1.003826;0.011832;-0.038760;0.015271;0.125244;-0.625000;-0.520508;0.609248;0.530009;-0.407723;-0.426226
28624;0.547753;9.726261;1.012249;-0.096230;-0.053170;0.010368;0.112793;-0.624268;-0.528076;0.609517;0.529322;-0.407717;-0.426701
28625;0.612962;9.609737;1.020227;-0.152898;-0.024508;0.009766;0.123047;-0.623047;-0.526367;0.610122;0.528415;-0.407404;-0.427259
28626;0.532605;9.585059;1.036958;-0.050405;0.002093;0.012184;0.110352;-0.630615;-0.534180;0.610392;0.528137;-0.407304;-0.427314
28627;0.562927;9.663251;1.006828;-0.004508;-0.016196;0.022092;0.112061;-0.625488;-0.524414;0.610407;0.527966;-0.407575;-0.427245
28628;0.567611;9.667708;0.967576;-0.050263;0.010395;0.024431;0.126953;-0.623047;-0.526611;0.610737;0.527654;-0.407533;-0.427198
28629;0.481622;9.702178;1.022029;-0.046339;0.001124;0.030165;0.121338;-0.626953;-0.531250;0.611061;0.527352;-0.407518;-0.427123
28630;0.506169;9.709239;1.049397;-0.034260;-0.040384;0.037064;0.116455;-0.630615;-0.531494;0.611195;0.526926;-0.407829;-0.427159
28631;0.593641;9.637631;1.011933;-0.076636;-0.019476;0.029626;0.113037;-0.626465;-0.532227;0.611546;0.526378;-0.407882;-0.427282
28632;0.496110;9.582351;1.072741;-0.053536;-0.008175;0.024268;0.123291;-0.623047;-0.523926;0.611819;0.525983;-0.407942;-0.427321
28633;0.461430;9.645676;0.983991;0.018921;-0.020338;0.026186;0.107178;-0.631104;-0.531982;0.611771;0.525972;-0.408237;-0.427120
28634;0.493333;9.700902;1.021099;-0.026473;-0.049411;0.030576;0.119385;-0.630615;-0.533936;0.611778;0.525538;-0.408683;-0.427219
28635;0.558318;9.690677;0.998642;-0.067167;-0.061893;0.024804;0.115479;-0.627686;-0.535889;0.611923;0.524935;-0.408943;-0.427504
28636;0.522348;9.742863;1.002909;-0.041594;-0.054871;0.020492;0.104248;-0.629639;-0.534180;0.611961;0.524477;-0.409250;-0.427718
28637;0.533248;9.703780;1.040647;-0.063144;-0.079290;0.033183;0.114990;-0.624756;-0.532959;0.612022;0.523735;-0.409739;-0.428070
28638;0.650536;9.599923;1.031542;-0.092454;-0.072139;0.030280;0.113037;-0.627197;-0.527344;0.612268;0.522946;-0.409957;-0.428475
28639;0.627632;9.568653;1.036706;-0.031292;-0.029722;0.027278;0.110596;-0.620605;-0.534424;0.612378;0.522661;-0.410176;-0.428457
28640;0.589377;9.690615;1.071950;0.019060;-0.030031;0.027098;0.110840;-0.625244;-0.538086;0.612274;0.522567;-0.410574;-0.428337
28641;0.642289;9.727904;1.097052;-0.024701;-0.055843;0.031631;0.105225;-0.627441;-0.542236;0.612273;0.522147;-0.410998;-0.428445
28642;0.678609;9.682104;1.113301;-0.065148;-0.035745;0.031453;0.108398;-0.625244;-0.537842;0.612492;0.521543;-0.411243;-0.428633
28643;0.641474;9.623448;1.098533;-0.036185;-0.019487;0.023678;0.102051;-0.618896;-0.538086;0.612640;0.521214;-0.411414;-0.428656
28644;0.626962;9.596809;1.108145;-0.007862;-0.019333;0.027312;0.098633;-0.612549;-0.534668;0.612682;0.520947;-0.411718;-0.428631
28645;0.600083;9.654126;1.113120;0.030666;-0.020880;0.018154;0.107178;-0.624512;-0.531738;0.612536;0.520872;-0.412103;-0.428559
28646;0.558576;9.702602;1.068883;0.035310;-0.033300;0.014524;0.107422;-0.623291;-0.535889;0.612310;0.520931;-0.412525;-0.428404
28647;0.580291;9.704823;1.131006;-0.011364;-0.052442;0.014392;0.101318;-0.637939;-0.539062;0.612219;0.520654;-0.412875;-0.428534
28648;0.695029;9.576167;1.080809;-0.051598;-0.062483;0.014159;0.109375;-0.617920;-0.531006;0.612192;0.520123;-0.413302;-0.428806
28649;0.755551;9.585938;1.130518;-0.000377;-0.036570;0.008523;0.100098;-0.623779;-0.530273;0.612134;0.520033;-0.413473;-0.428834
28650;0.680631;9.568033;1.060973;0.027938;-0.028319;0.009370;0.101318;-0.620361;-0.539551;0.611927;0.520048;-0.413867;-0.428730
28651;0.690276;9.646670;1.062151;0.018009;-0.027276;0.007659;0.102539;-0.619873;-0.531006;0.611770;0.519947;-0.414202;-0.428753
28652;0.705622;9.674298;1.078831;-0.000413;-0.023697;0.006060;0.108643;-0.623535;-0.536133;0.611721;0.519855;-0.414388;-0.428755
28653;0.657804;9.668010;1.040526;0.031471;-0.005772;-0.003016;0.095703;-0.624023;-0.542969;0.611569;0.520063;-0.414517;-0.428594
28654;0.671482;9.683424;1.037965;0.023190;-0.020445;-0.007151;0.108154;-0.623047;-0.539307;0.611324;0.519984;-0.414882;-0.428687
28655;0.645010;9.721387;1.044071;0.016697;-0.013503;-0.009330;0.103516;-0.630371;-0.529053;0.611184;0.520072;-0.414979;-0.428686
28656;0.624591;9.714132;1.019738;0.025196;-0.016036;-0.009448;0.104736;-0.627441;-0.529541;0.610959;0.520272;-0.415198;-0.428552
28657;0.710727;9.760307;1.022493;0.014808;-0.035623;-0.003283;0.097412;-0.626953;-0.529785;0.610749;0.520322;-0.415465;-0.428531
28658;0.653759;9.706309;0.970383;-0.008923;-0.001558;-0.002301;0.094238;-0.626221;-0.533936;0.610730;0.520272;-0.415590;-0.428498
28659;0.656715;9.762404;1.072924;-0.016740;-0.028477;0.003064;0.105713;-0.628662;-0.537354;0.610653;0.519986;-0.415908;-0.428647
28660;0.741007;9.722222;1.096623;-0.032616;-0.024020;-0.003643;0.100098;-0.619629;-0.536865;0.610681;0.519794;-0.415952;-0.428796
28661;0.730980;9.686864;1.103161;-0.045462;-0.016064;-0.014767;0.103271;-0.628662;-0.538086;0.610770;0.519494;-0.415877;-0.429106
28662;0.725525;9.643166;1.022145;0.001486;-0.023733;-0.017995;0.106689;-0.622559;-0.539307;0.610591;0.519498;-0.416020;-0.429218
28663;0.702215;9.680814;1.109872;0.002957;-0.025506;-0.014794;0.099121;-0.626221;-0.534424;0.610456;0.519494;-0.416087;-0.429350
28664;0.755304;9.647668;1.073619;-0.034449;-0.022974;-0.012319;0.103516;-0.626465;-0.534668;0.610451;0.519268;-0.416157;-0.429562
28665;0.720100;9.624747;1.054942;-0.017254;0.000002;-0.011892;0.103271;-0.631104;-0.535400;0.610476;0.519277;-0.416098;-0.429574
28666;0.766736;9.618685;1.075643;-0.004551;-0.015864;-0.017941;0.098633;-0.617188;-0.537109;0.610342;0.519325;-0.416188;-0.429618
28667;0.772965;9.648023;1.119057;-0.000663;-0.009038;-0.016183;0.098389;-0.624756;-0.537598;0.610268;0.519250;-0.416239;-0.429764
28668;0.689021;9.606235;1.045157;-0.007716;-0.001750;-0.015663;0.104736;-0.622070;-0.529297;0.610213;0.519193;-0.416302;-0.429850
28669;0.670521;9.665930;1.038324;0.002417;-0.018607;-0.014974;0.099365;-0.624756;-0.533691;0.610116;0.519308;-0.416313;-0.429838
28670;0.705869;9.730839;1.040371;0.012366;-0.019637;-0.013305;0.103516;-0.629639;-0.534912;0.609925;0.519340;-0.416521;-0.429870
28671;0.703249;9.743467;1.058476;-0.036758;-0.026334;-0.018622;0.101807;-0.627197;-0.536133;0.609901;0.519190;-0.416527;-0.430078
28672;0.695330;9.750319;1.044925;-0.030375;-0.013862;-0.021718;0.098633;-0.628906;-0.538330;0.609884;0.519080;-0.416496;-0.430266
28673;0.698074;9.699461;1.061129;-0.010705;-0.029184;-0.026236;0.103027;-0.626709;-0.544189;0.609680;0.518967;-0.416681;-0.430512
28674;0.723568;9.716586;1.051945;-0.035089;-0.032445;-0.022178;0.098877;-0.622070;-0.542480;0.609618;0.518690;-0.416727;-0.430889
28675;0.702447;9.653334;1.120222;-0.062025;-0.023222;-0.023407;0.094238;-0.622803;-0.543457;0.609704;0.518254;-0.416657;-0.431360
28676;0.691714;9.574245;1.123249;-0.046079;-0.024075;-0.022967;0.092041;-0.624512;-0.541992;0.609688;0.517828;-0.416751;-0.431803
28677;0.659819;9.562522;1.095528;0.001105;-0.023019;-0.020281;0.102051;-0.626465;-0.531982;0.609465;0.517644;-0.417066;-0.432032
28678;0.650935;9.631883;1.054790;0.002286;-0.043648;-0.012445;0.105957;-0.624756;-0.535645;0.609262;0.517680;-0.417281;-0.432070
28679;0.651317;9.600577;1.069007;-0.054067;-0.068725;-0.006625;0.094238;-0.619629;-0.533691;0.609252;0.517313;-0.417375;-0.432432
28680;0.691516;9.578011;1.174353;-0.079190;-0.080383;-0.004335;0.093994;-0.620605;-0.547852;0.609286;0.516605;-0.417616;-0.432996
28681;0.713653;9.540861;1.198594;-0.051772;-0.087299;0.002290;0.095703;-0.622803;-0.539307;0.609171;0.515811;-0.418092;-0.433645
28682;0.607832;9.721220;1.152153;0.010279;-0.086075;0.005872;0.094971;-0.620361;-0.546143;0.608829;0.515519;-0.418717;-0.433871
28683;0.688695;9.949970;1.260989;0.040994;-0.091117;0.024658;0.093994;-0.615723;-0.544189;0.608402;0.515181;-0.419572;-0.434046
28684;0.893217;9.787063;1.157600;-0.102798;-0.063458;0.015129;0.098145;-0.619629;-0.533936;0.608689;0.514248;-0.419664;-0.434660
28685;0.779127;9.566974;1.265769;-0.189764;0.023631;-0.006404;0.091553;-0.620850;-0.539307;0.609609;0.513552;-0.418775;-0.435050
28686;0.709286;9.537883;1.320960;-0.103714;0.021437;-0.017722;0.090332;-0.619629;-0.544922;0.610046;0.513167;-0.418354;-0.435297
28687;0.677255;9.629993;1.154140;0.017383;0.040049;-0.023262;0.101318;-0.624023;-0.544922;0.609994;0.513382;-0.418306;-0.435162
28688;0.636290;9.707315;1.159949;-0.005259;0.060154;-0.020095;0.101074;-0.615967;-0.549805;0.610149;0.513730;-0.417914;-0.434912
28689;0.537770;9.613048;1.146355;-0.096256;0.050743;-0.011473;0.097168;-0.606445;-0.539062;0.610720;0.513413;-0.417254;-0.435118
28690;0.539600;9.610034;1.241076;-0.098429;0.042711;-0.018246;0.095459;-0.613281;-0.549561;0.611306;0.513151;-0.416535;-0.435292
28691;0.444417;9.712466;1.129128;0.029425;0.030504;-0.019864;0.101562;-0.619873;-0.546875;0.611214;0.513356;-0.416508;-0.435206
28692;0.645511;9.741870;1.176196;-0.025632;-0.020248;-0.018946;0.094238;-0.622559;-0.545654;0.611175;0.513257;-0.416473;-0.435412
28693;0.729810;9.564164;1.233944;-0.157905;0.013942;-0.037181;0.093018;-0.615234;-0.551758;0.611703;0.512596;-0.415868;-0.436025
28694;0.653259;9.468851;1.267271;-0.053267;0.025728;-0.037471;0.098389;-0.609131;-0.551758;0.611845;0.512385;-0.415583;-0.436347
28695;0.673786;9.593096;1.235618;0.121118;0.008550;-0.016980;0.096191;-0.616211;-0.546875;0.611314;0.512982;-0.415957;-0.436033
28696;0.741367;9.688390;1.207356;0.029051;0.016180;-0.011785;0.095459;-0.620117;-0.549805;0.611186;0.513178;-0.416055;-0.435888
28697;0.700892;9.654465;1.196036;-0.065223;0.039036;-0.012566;0.099609;-0.614990;-0.552979;0.611504;0.512931;-0.415761;-0.436013
28698;0.553143;9.603226;1.211367;-0.018498;0.053031;-0.011925;0.094971;-0.618652;-0.549805;0.611705;0.512958;-0.415475;-0.435972
28699;0.540521;9.637133;1.146485;0.032298;0.019706;-0.001010;0.108398;-0.620117;-0.544922;0.611585;0.513091;-0.415692;-0.435778
28700;0.667241;9.630538;1.153849;-0.017853;0.006235;-0.002463;0.089355;-0.619629;-0.548340;0.611678;0.513195;-0.415523;-0.435684
28701;0.560766;9.692607;1.212682;-0.040331;0.032099;-0.013521;0.090576;-0.622559;-0.543213;0.611845;0.512992;-0.415460;-0.435750
28702;0.464901;9.715643;1.169594;0.009484;-0.022670;-0.013940;0.099365;-0.613525;-0.539062;0.611616;0.512975;-0.415818;-0.435751
28703;0.540271;9.770810;1.182095;-0.010734;-0.060107;-0.006929;0.105225;-0.614258;-0.546875;0.611469;0.512847;-0.416042;-0.435893
28704;0.650608;9.699356;1.258096;-0.094603;-0.065536;-0.003321;0.091797;-0.605713;-0.551270;0.611658;0.512216;-0.415958;-0.436449
28705;0.696771;9.507501;1.297907;-0.088367;-0.048270;-0.005951;0.099854;-0.619385;-0.552002;0.611854;0.511404;-0.415995;-0.437092
28706;0.689071;9.570192;1.307200;0.024188;-0.019429;-0.011059;0.093506;-0.618408;-0.551025;0.611599;0.511493;-0.416237;-0.437115
28707;0.673982;9.691863;1.250042;0.049931;-0.026134;-0.007546;0.106934;-0.621582;-0.548584;0.611213;0.511594;-0.416717;-0.437078
28708;0.743431;9.661854;1.301997;-0.085470;-0.020594;0.000215;0.100098;-0.616455;-0.552490;0.611489;0.511234;-0.416472;-0.437347
28709;0.666690;9.475605;1.308519;-0.089487;0.015076;-0.002737;0.091309;-0.617920;-0.558105;0.611889;0.510826;-0.416121;-0.437599
28710;0.648702;9.559457;1.338486;0.062010;0.005841;0.000210;0.092529;-0.609619;-0.546631;0.611567;0.510959;-0.416586;-0.437451
28711;0.721543;9.703395;1.252125;0.046214;0.008250;-0.000256;0.093750;-0.614502;-0.547852;0.611419;0.511182;-0.416797;-0.437195
28712;0.674733;9.627933;1.283863;-0.084124;0.018987;-0.004204;0.096191;-0.605713;-0.551270;0.611818;0.510802;-0.416493;-0.437371
28713;0.653625;9.514427;1.312170;-0.046845;0.001918;-0.001193;0.093018;-0.613770;-0.549805;0.612055;0.510484;-0.416335;-0.437561
28714;0.653551;9.625350;1.330635;0.088548;0.018200;-0.009761;0.100342;-0.618164;-0.545654;0.611690;0.510981;-0.416661;-0.437181
28715;0.583279;9.743739;1.151282;0.094730;0.012438;-0.016305;0.095459;-0.619141;-0.546143;0.611267;0.511678;-0.416893;-0.436737
28716;0.598605;9.666092;1.178924;-0.034381;-0.025690;-0.012088;0.093262;-0.614502;-0.547119;0.611252;0.511466;-0.416969;-0.436933
28717;0.637860;9.611220;1.293027;-0.080032;-0.030753;-0.019130;0.095947;-0.611084;-0.543945;0.611404;0.510971;-0.416876;-0.437388
28718;0.661814;9.548580;1.355891;0.034043;-0.032992;-0.025467;0.095703;-0.617676;-0.547363;0.611082;0.511163;-0.417081;-0.437418
28719;0.638796;9.672758;1.216056;0.090958;-0.015530;-0.025350;0.086914;-0.618652;-0.548096;0.610523;0.511670;-0.417488;-0.437217
28720;0.589756;9.741204;1.142555;0.027541;-0.036874;-0.010620;0.091797;-0.611084;-0.547363;0.610176;0.511577;-0.418001;-0.437321
28721;0.685984;9.648877;1.256248;-0.093102;-0.052735;-0.005504;0.098633;-0.617188;-0.547119;0.610374;0.510841;-0.418013;-0.437894
28722;0.732703;9.543694;1.279185;-0.029788;-0.025047;-0.019829;0.095947;-0.617676;-0.548096;0.610338;0.510733;-0.417970;-0.438110
28723;0.603143;9.637051;1.252624;0.116186;-0.012841;-0.033182;0.096191;-0.620117;-0.543701;0.609657;0.511413;-0.418399;-0.437855
28724;0.662197;9.784284;1.207767;0.081873;-0.051542;-0.020440;0.100342;-0.605469;-0.541016;0.609037;0.511791;-0.418941;-0.437758
28725;0.738852;9.654895;1.201378;-0.073405;-0.024611;-0.008756;0.095947;-0.613037;-0.553711;0.609334;0.511461;-0.418609;-0.438048
28726;0.689623;9.517038;1.287748;-0.081781;-0.000321;-0.009622;0.088379;-0.604980;-0.547119;0.609644;0.510967;-0.418338;-0.438452
28727;0.673861;9.501969;1.286731;0.067924;-0.006778;-0.012472;0.100098;-0.614258;-0.541748;0.609316;0.511195;-0.418670;-0.438325
28728;0.703814;9.674649;1.263034;0.108271;0.005006;-0.017934;0.087891;-0.611816;-0.544678;0.608846;0.511970;-0.418898;-0.437856
28729;0.647904;9.775366;1.202349;0.037906;0.015053;-0.014546;0.084961;-0.613037;-0.545410;0.608678;0.512152;-0.419056;-0.437725
28730;0.659473;9.692454;1.199206;-0.027848;0.008520;-0.000731;0.090820;-0.625488;-0.541748;0.608795;0.511873;-0.419135;-0.437814
28731;0.663081;9.598345;1.236674;-0.055475;0.007440;-0.000605;0.093994;-0.621582;-0.547119;0.608993;0.511656;-0.419082;-0.437841
28732;0.667321;9.590319;1.259998;-0.002577;0.011294;-0.010100;0.092285;-0.628418;-0.550293;0.608964;0.511707;-0.419105;-0.437801
28733;0.681966;9.660680;1.256881;0.046224;0.017216;-0.012683;0.093506;-0.616455;-0.544434;0.608682;0.511990;-0.419367;-0.437612
28734;0.630217;9.673442;1.191008;0.006583;0.020345;-0.008210;0.093994;-0.613525;-0.541748;0.608692;0.512111;-0.419336;-0.437486
28735;0.599818;9.674372;1.177366;-0.013503;0.007708;-0.000347;0.095947;-0.620361;-0.553223;0.608801;0.512089;-0.419283;-0.437411
28736;0.624973;9.649386;1.186853;-0.029943;-0.006196;-0.003149;0.090332;-0.615967;-0.542480;0.608849;0.511820;-0.419320;-0.437623
28737;0.673017;9.655702;1.224768;-0.007164;-0.005955;-0.007469;0.094482;-0.611572;-0.550537;0.608825;0.511766;-0.419412;-0.437631
28738;0.672160;9.631040;1.192279;-0.002066;0.012553;-0.012678;0.094727;-0.618652;-0.547607;0.608838;0.511734;-0.419352;-0.437708
28739;0.596333;9.636074;1.240030;-0.018700;0.008250;-0.016368;0.091064;-0.615479;-0.545166;0.608865;0.511696;-0.419270;-0.437794
28740;0.611281;9.700060;1.180181;0.018947;-0.005119;-0.004467;0.089111;-0.618896;-0.552246;0.608740;0.511736;-0.419467;-0.437732
28741;0.676111;9.653827;1.176629;-0.008569;-0.010959;-0.004722;0.094482;-0.611572;-0.541992;0.608658;0.511492;-0.419694;-0.437913
28742;0.654072;9.695111;1.226801;-0.045263;-0.000769;-0.009238;0.095215;-0.612305;-0.545410;0.608858;0.511327;-0.419493;-0.438022
28743;0.549068;9.578555;1.120108;0.004838;-0.008459;-0.013317;0.090332;-0.619141;-0.543457;0.608784;0.511365;-0.419517;-0.438057
28744;0.571105;9.745034;1.202942;0.002206;-0.049994;-0.004377;0.099121;-0.623779;-0.548340;0.608559;0.511203;-0.419898;-0.438193
28745;0.611865;9.717178;1.135291;-0.021376;-0.038984;0.005097;0.084717;-0.612305;-0.544922;0.608499;0.510989;-0.420089;-0.438344
28746;0.650699;9.669856;1.231060;-0.098879;-0.040539;0.011878;0.097412;-0.616211;-0.547119;0.608808;0.510182;-0.420158;-0.438788
28747;0.736017;9.561877;1.248919;-0.095842;-0.040487;0.012001;0.092041;-0.616699;-0.551514;0.609129;0.509566;-0.420056;-0.439156
28748;0.753853;9.544366;1.270572;-0.028210;-0.021494;0.010258;0.083008;-0.609619;-0.552490;0.609182;0.509258;-0.420210;-0.439291
28749;0.723266;9.619595;1.254323;0.008046;-0.012251;0.009837;0.088379;-0.613525;-0.547119;0.609114;0.509021;-0.420544;-0.439342
28750;0.745068;9.712899;1.263146;-0.006521;0.003390;0.002520;0.090820;-0.604248;-0.549072;0.609161;0.508967;-0.420608;-0.439276
28751;0.730634;9.709864;1.279516;-0.014100;0.013010;-0.000470;0.089600;-0.618164;-0.555420;0.609313;0.508883;-0.420492;-0.439274
28752;0.659050;9.653104;1.245050;-0.018887;0.007063;-0.000231;0.090576;-0.610107;-0.552002;0.609361;0.508698;-0.420549;-0.439367
28753;0.662066;9.584601;1.209385;-0.035971;-0.003972;0.007887;0.090576;-0.609619;-0.543945;0.609532;0.508395;-0.420539;-0.439491
28754;0.665744;9.656256;1.290834;-0.041170;-0.010688;0.004228;0.092529;-0.609863;-0.548096;0.609731;0.508192;-0.420459;-0.439527
28755;0.720402;9.661212;1.304288;-0.003765;-0.010601;0.005866;0.095215;-0.612549;-0.553467;0.609763;0.508139;-0.420523;-0.439482
28756;0.709268;9.712762;1.319644;-0.024595;-0.001040;0.000286;0.086182;-0.613525;-0.548340;0.609871;0.507999;-0.420447;-0.439566
28757;0.746813;9.605645;1.223808;-0.040334;-0.000125;-0.001876;0.081543;-0.616699;-0.548828;0.610022;0.507767;-0.420414;-0.439657
28758;0.668749;9.598541;1.282605;-0.012648;0.016445;-0.003320;0.090088;-0.610352;-0.554443;0.610073;0.507699;-0.420486;-0.439596
28759;0.693501;9.703416;1.282354;0.029821;-0.012098;-0.000462;0.083740;-0.609375;-0.546387;0.609897;0.507726;-0.420731;-0.439574
28760;0.719346;9.654269;1.255599;-0.043278;0.001663;-0.005196;0.090820;-0.616943;-0.554443;0.610079;0.507490;-0.420651;-0.439672
28761;0.668627;9.566242;1.301587;-0.074167;-0.002182;-0.004580;0.088379;-0.607422;-0.558350;0.610332;0.507081;-0.420473;-0.439961
28762;0.688201;9.548743;1.292898;0.020999;-0.011968;-0.004341;0.089600;-0.613037;-0.551758;0.610173;0.507007;-0.420695;-0.440055
28763;0.744791;9.714616;1.257997;0.048101;0.002829;0.003244;0.094238;-0.612305;-0.550049;0.609986;0.507237;-0.420942;-0.439814
28764;0.691708;9.709031;1.248489;-0.053609;-0.002397;0.003420;0.083496;-0.622314;-0.548828;0.610238;0.506996;-0.420757;-0.439918
28765;0.721409;9.601406;1.312418;-0.094569;-0.014157;0.000956;0.089355;-0.618652;-0.552490;0.610530;0.506458;-0.420685;-0.440202
28766;0.741489;9.571359;1.289804;0.005901;0.003880;-0.007341;0.084229;-0.613770;-0.546631;0.610454;0.506543;-0.420763;-0.440135
28767;0.683165;9.665360;1.306671;0.040893;-0.001509;-0.004122;0.090332;-0.612061;-0.553467;0.610257;0.506781;-0.421014;-0.439894
28768;0.709510;9.721644;1.238873;-0.016300;-0.017297;0.000003;0.084473;-0.614746;-0.547607;0.610262;0.506609;-0.421097;-0.440005
28769;0.732167;9.653754;1.267809;-0.051379;-0.008877;-0.001346;0.086670;-0.609375;-0.551514;0.610429;0.506330;-0.421064;-0.440127
28770;0.765431;9.570079;1.336383;-0.050781;-0.012597;-0.001108;0.081299;-0.612061;-0.551025;0.610601;0.505996;-0.421009;-0.440324
28771;0.752640;9.621568;1.352768;0.012094;-0.004996;-0.014145;0.090576;-0.615967;-0.553711;0.610454;0.506022;-0.421181;-0.440334
28772;0.727843;9.684079;1.266413;0.019978;-0.007163;-0.011584;0.089355;-0.616943;-0.550537;0.610284;0.506153;-0.421305;-0.440300
28773;0.718076;9.673164;1.302206;-0.055578;-0.016974;-0.000770;0.084717;-0.608643;-0.555420;0.610441;0.505856;-0.421251;-0.440475
28774;0.748392;9.553304;1.348157;-0.084167;-0.014289;0.004857;0.083984;-0.612549;-0.563965;0.610753;0.505261;-0.421145;-0.440827
28775;0.769790;9.516437;1.367588;0.010641;0.007868;-0.002829;0.090820;-0.609863;-0.549561;0.610659;0.505162;-0.421325;-0.440900
28776;0.757850;9.649937;1.304517;0.058649;-0.003888;-0.009466;0.085693;-0.612305;-0.550293;0.610400;0.505560;-0.421501;-0.440633
28777;0.798273;9.695931;1.306006;0.004472;0.004255;-0.012283;0.084961;-0.609619;-0.549805;0.610351;0.505651;-0.421522;-0.440578
28778;0.745218;9.639886;1.335243;-0.037455;0.010030;-0.008968;0.082275;-0.605957;-0.551270;0.610522;0.505523;-0.421366;-0.440636
28779;0.700282;9.625559;1.322327;-0.004131;0.010949;-0.005300;0.086426;-0.609863;-0.547363;0.610570;0.505494;-0.421370;-0.440598
28780;0.719322;9.608772;1.309182;0.008195;0.009105;-0.005617;0.082764;-0.608887;-0.558105;0.610572;0.505640;-0.421366;-0.440432
28781;0.741058;9.646555;1.296133;-0.019666;0.003705;-0.004950;0.090576;-0.606689;-0.551270;0.610621;0.505423;-0.421405;-0.440577
28782;0.664657;9.676797;1.275282;-0.013295;0.008745;-0.013233;0.085205;-0.607666;-0.550049;0.610703;0.505467;-0.421235;-0.440575
28783;0.657064;9.708615;1.292185;-0.009205;-0.020854;-0.006878;0.083740;-0.614502;-0.556396;0.610661;0.505359;-0.421339;-0.440658
28784;0.722448;9.666668;1.354632;-0.065866;-0.013858;-0.002990;0.086914;-0.615479;-0.548340;0.610832;0.504900;-0.421311;-0.440972
28785;0.742691;9.519010;1.356072;-0.069235;0.005316;-0.004824;0.087158;-0.608643;-0.558594;0.611120;0.504664;-0.421073;-0.441071
28786;0.700967;9.559251;1.343018;0.014831;-0.002550;-0.003966;0.083252;-0.609619;-0.548340;0.611026;0.504674;-0.421202;-0.441068
28787;0.786009;9.719318;1.263450;0.050230;-0.006774;-0.001641;0.083984;-0.611328;-0.563721;0.610792;0.504935;-0.421495;-0.440813
28788;0.770939;9.740431;1.312161;-0.056828;-0.003371;0.000769;0.086914;-0.610596;-0.556396;0.610971;0.504457;-0.421470;-0.441136
28789;0.793666;9.566060;1.386066;-0.112431;-0.012335;-0.001121;0.086182;-0.608398;-0.555420;0.611387;0.503809;-0.421189;-0.441568
28790;0.786115;9.510509;1.421764;-0.012001;0.011151;-0.003169;0.081543;-0.603271;-0.555908;0.611468;0.503785;-0.421136;-0.441533
28791;0.790318;9.615807;1.355507;0.068997;0.023072;0.001484;0.092529;-0.601318;-0.554199;0.611272;0.504127;-0.421378;-0.441184
28792;0.771147;9.695252;1.319632;-0.007085;0.031013;-0.004798;0.084229;-0.612793;-0.555908;0.611465;0.504257;-0.421098;-0.441036
28793;0.704732;9.623244;1.351113;-0.083185;0.016612;-0.003915;0.082520;-0.609619;-0.553223;0.611828;0.503865;-0.420815;-0.441250
28794;0.703692;9.622257;1.358657;-0.009700;-0.000176;-0.006740;0.084229;-0.605225;-0.559814;0.611831;0.503814;-0.420866;-0.441255
28795;0.750388;9.647707;1.367005;0.011590;0.010315;-0.006284;0.092773;-0.612061;-0.560303;0.611788;0.503828;-0.420930;-0.441238
28796;0.743936;9.655157;1.351752;-0.049955;0.002568;-0.005333;0.081055;-0.609131;-0.564697;0.611979;0.503599;-0.420739;-0.441416
28797;0.749046;9.610546;1.325611;-0.024904;0.003604;-0.011402;0.087158;-0.605469;-0.562256;0.611998;0.503344;-0.420773;-0.441648
28798;0.753720;9.693519;1.394920;0.011997;-0.001773;-0.013848;0.086914;-0.610596;-0.562744;0.611881;0.503350;-0.420847;-0.441732
28799;0.797637;9.639864;1.373438;-0.049749;0.000076;-0.013704;0.078125;-0.608154;-0.551025;0.612002;0.503053;-0.420723;-0.442023
28800;0.734474;9.579134;1.397242;-0.051097;0.015418;-0.013518;0.090576;-0.597168;-0.561035;0.612223;0.502886;-0.420527;-0.442092
28801;0.708484;9.560122;1.387959;0.010174;0.010715;-0.011217;0.084229;-0.614990;-0.551514;0.612223;0.502954;-0.420446;-0.442092
28802;0.721532;9.661777;1.377385;0.024468;0.006761;-0.010980;0.087158;-0.608398;-0.557129;0.612089;0.503205;-0.420556;-0.441888
28803;0.741269;9.724171;1.395681;-0.001920;0.006365;-0.013134;0.091553;-0.610107;-0.550781;0.612070;0.503251;-0.420527;-0.441890
28804;0.747301;9.636805;1.359239;-0.036849;-0.003640;-0.016855;0.087891;-0.599365;-0.557373;0.612184;0.503224;-0.420321;-0.441958
28805;0.743021;9.573850;1.410602;-0.056254;-0.009952;-0.016304;0.089600;-0.604736;-0.562500;0.612370;0.502923;-0.420103;-0.442250
28806;0.752671;9.533849;1.416875;0.013960;-0.004140;-0.010109;0.088623;-0.607422;-0.555908;0.612265;0.502956;-0.420179;-0.442285
28807;0.759962;9.655451;1.404321;0.025836;-0.006706;-0.014277;0.087402;-0.603760;-0.561035;0.612094;0.503134;-0.420286;-0.442218
28808;0.776607;9.658355;1.364205;-0.018707;-0.003666;-0.018128;0.085693;-0.606201;-0.562256;0.612102;0.503020;-0.420218;-0.442402
28809;0.764299;9.658821;1.419280;-0.046281;0.003092;-0.017567;0.083740;-0.603516;-0.554932;0.612228;0.502766;-0.420059;-0.442666
28810;0.756674;9.548659;1.426444;-0.027291;0.006688;-0.017340;0.084229;-0.602783;-0.555420;0.612320;0.502694;-0.419921;-0.442753
28811;0.736152;9.608446;1.421555;0.034274;0.009794;-0.018578;0.089355;-0.610107;-0.563477;0.612162;0.502949;-0.419984;-0.442621
28812;0.674481;9.693256;1.316428;0.046030;0.010121;-0.019242;0.084717;-0.610107;-0.553711;0.611908;0.503230;-0.420112;-0.442533
28813;0.721328;9.687517;1.335408;-0.057254;-0.011005;-0.011083;0.085693;-0.605469;-0.561523;0.612059;0.502945;-0.420006;-0.442747
28814;0.726972;9.541033;1.413750;-0.118525;-0.003367;-0.011620;0.083496;-0.605225;-0.556396;0.612491;0.502288;-0.419634;-0.443248
28815;0.712324;9.505320;1.446684;0.005562;0.000056;-0.011493;0.084961;-0.601074;-0.557129;0.612426;0.502336;-0.419700;-0.443221
28816;0.741415;9.665354;1.419302;0.054458;0.002694;-0.016485;0.083008;-0.609375;-0.564453;0.612171;0.502652;-0.419874;-0.443050
28817;0.770843;9.691393;1.335460;-0.009609;0.022466;-0.017172;0.086182;-0.610352;-0.558594;0.612176;0.502624;-0.419819;-0.443128
28818;0.678771;9.624389;1.385351;-0.055770;0.009240;-0.011875;0.088623;-0.605957;-0.558105;0.612375;0.502395;-0.419621;-0.443299
28819;0.682473;9.596018;1.438750;-0.052182;-0.007236;-0.022937;0.088379;-0.595703;-0.561279;0.612493;0.502185;-0.419418;-0.443566
28820;0.748834;9.561565;1.429796;0.014403;0.006070;-0.023254;0.093262;-0.611084;-0.555176;0.612415;0.502304;-0.419354;-0.443600
28821;0.704446;9.684950;1.337408;0.051704;0.015036;-0.018252;0.090576;-0.610840;-0.559814;0.612193;0.502782;-0.419404;-0.443317
28822;0.598681;9.689625;1.368671;-0.040527;0.009456;-0.016611;0.087646;-0.611328;-0.562500;0.612318;0.502670;-0.419208;-0.443457
28823;0.674542;9.595476;1.420866;-0.084645;-0.021003;-0.014461;0.087891;-0.602539;-0.561035;0.612504;0.502161;-0.419066;-0.443910
28824;0.687200;9.589967;1.458806;-0.031821;-0.002302;-0.019205;0.092773;-0.605225;-0.556885;0.612568;0.502018;-0.418940;-0.444103
28825;0.690432;9.577361;1.420371;-0.011926;-0.005528;-0.006967;0.087891;-0.605225;-0.551270;0.612601;0.502023;-0.418894;-0.444095
28826;0.741280;9.614208;1.423854;-0.023782;-0.016215;-0.009527;0.085205;-0.609863;-0.564209;0.612634;0.501957;-0.418880;-0.444138
28827;0.833342;9.598440;1.428236;-0.023017;-0.005728;-0.013912;0.090332;-0.605225;-0.561768;0.612610;0.501794;-0.418914;-0.444324
28828;0.792134;9.591857;1.512934;-0.049159;0.009740;-0.022266;0.093994;-0.607422;-0.558594;0.612771;0.501649;-0.418637;-0.444525
28829;0.691943;9.547990;1.455597;0.009355;0.030008;-0.024650;0.090576;-0.607910;-0.558350;0.612761;0.501961;-0.418424;-0.444387
28830;0.639215;9.628845;1.406956;0.043934;0.014265;-0.022704;0.083496;-0.604492;-0.558350;0.612539;0.502350;-0.418477;-0.444205
28831;0.756811;9.656308;1.427894;-0.020964;-0.005852;-0.018130;0.087158;-0.605957;-0.560791;0.612521;0.502237;-0.418477;-0.444357
28832;0.767242;9.584562;1.446878;-0.065249;0.009132;-0.020467;0.092773;-0.606689;-0.558350;0.612735;0.501974;-0.418201;-0.444618
28833;0.726082;9.561667;1.455327;-0.018952;0.008979;-0.017106;0.082764;-0.601074;-0.562256;0.612794;0.502020;-0.418042;-0.444636
28834;0.757452;9.658919;1.449774;0.049797;0.007236;-0.013049;0.084717;-0.604736;-0.558105;0.612546;0.502252;-0.418268;-0.444503
28835;0.742058;9.730787;1.432535;0.017032;0.021561;-0.004667;0.090576;-0.605225;-0.561035;0.612517;0.502403;-0.418315;-0.444327
28836;0.709009;9.590207;1.433259;-0.079204;0.011295;-0.007327;0.086426;-0.602295;-0.568604;0.612864;0.502054;-0.417992;-0.444547
28837;0.731393;9.489935;1.476393;-0.062277;0.026115;-0.019767;0.082764;-0.598389;-0.554688;0.613120;0.501776;-0.417668;-0.444812
28838;0.620708;9.643142;1.478833;0.086459;0.048301;-0.027713;0.086670;-0.606445;-0.555908;0.612840;0.502479;-0.417714;-0.444361
28839;0.593702;9.783034;1.354956;0.099321;0.020130;-0.017378;0.086426;-0.599609;-0.552979;0.612417;0.503127;-0.418009;-0.443935
28840;0.641207;9.660128;1.392624;-0.105419;-0.000472;-0.021121;0.095215;-0.607910;-0.558105;0.612807;0.502664;-0.417588;-0.444316
28841;0.702174;9.475177;1.478553;-0.145404;0.000200;-0.017023;0.085449;-0.604248;-0.562012;0.613368;0.502040;-0.416998;-0.444801
28842;0.664954;9.475490;1.496106;0.058403;0.015945;-0.017914;0.084961;-0.605469;-0.561035;0.613079;0.502396;-0.417198;-0.444610
28843;0.675939;9.661435;1.404456;0.133608;0.012547;-0.016129;0.083008;-0.610107;-0.558594;0.612464;0.503116;-0.417710;-0.444162
28844;0.645757;9.804949;1.369970;-0.003754;0.005375;-0.014011;0.094971;-0.604248;-0.558838;0.612382;0.503101;-0.417798;-0.444210
28845;0.688818;9.614594;1.423108;-0.093704;0.007604;-0.007419;0.104492;-0.606689;-0.555420;0.612806;0.502707;-0.417389;-0.444456
28846;0.687843;9.519277;1.486072;-0.033771;0.010959;-0.008463;0.087402;-0.598145;-0.558594;0.613034;0.502772;-0.417066;-0.444371
28847;0.688082;9.570496;1.422996;0.069039;0.013307;-0.008533;0.099609;-0.608154;-0.557373;0.612773;0.503162;-0.417292;-0.444077
28848;0.665256;9.693668;1.393421;0.019298;0.009865;-0.003391;0.089111;-0.607910;-0.558594;0.612752;0.503404;-0.417273;-0.443849
28849;0.672898;9.630334;1.389949;-0.054140;0.003646;-0.004385;0.085205;-0.607910;-0.562988;0.612948;0.503134;-0.417148;-0.444002
28850;0.690108;9.574354;1.459673;-0.012721;0.004196;-0.003448;0.092285;-0.602539;-0.558594;0.612944;0.503004;-0.417239;-0.444070
28851;0.720221;9.636289;1.428552;0.039671;0.011858;-0.001406;0.092285;-0.604248;-0.569580;0.612835;0.503263;-0.417356;-0.443816
28852;0.731421;9.597210;1.428485;-0.002787;0.015738;-0.004764;0.092285;-0.602783;-0.560303;0.612879;0.503229;-0.417326;-0.443823
28853;0.636976;9.599992;1.412271;-0.019521;0.022291;-0.006163;0.097900;-0.600586;-0.556885;0.613033;0.503219;-0.417159;-0.443778
28854;0.653062;9.650769;1.439127;0.043021;-0.004151;0.000656;0.093262;-0.608398;-0.565918;0.612908;0.503487;-0.417297;-0.443517
28855;0.680738;9.689714;1.395272;0.027567;0.003433;0.006014;0.092041;-0.599854;-0.555420;0.612813;0.503570;-0.417488;-0.443374
28856;0.686145;9.614693;1.399483;-0.060477;-0.006682;0.008271;0.093750;-0.603516;-0.561035;0.613116;0.503225;-0.417349;-0.443480
28857;0.693771;9.585798;1.453003;-0.051946;-0.010239;0.003194;0.094971;-0.604492;-0.561523;0.613334;0.502907;-0.417252;-0.443630
28858;0.681943;9.624974;1.452741;0.021259;0.007608;-0.001226;0.091064;-0.609131;-0.558838;0.613291;0.503060;-0.417307;-0.443463
28859;0.733668;9.659099;1.388701;0.040145;-0.005795;0.000251;0.092285;-0.610352;-0.557617;0.613082;0.503244;-0.417577;-0.443289
28860;0.715240;9.644376;1.409097;-0.015868;0.006715;0.003064;0.085449;-0.606934;-0.560303;0.613167;0.503198;-0.417574;-0.443226
28861;0.584920;9.612782;1.378926;-0.028486;0.007754;-0.000683;0.084473;-0.607178;-0.553223;0.613270;0.503018;-0.417570;-0.443292
28862;0.677878;9.621353;1.415524;0.010023;-0.029234;0.003573;0.093262;-0.603271;-0.563721;0.613099;0.502937;-0.417911;-0.443300
28863;0.734978;9.662632;1.451992;-0.011752;0.001199;0.000718;0.084961;-0.607666;-0.553955;0.613182;0.502857;-0.417891;-0.443294
28864;0.733929;9.595380;1.439449;-0.042690;-0.007031;-0.000065;0.090332;-0.596680;-0.556152;0.613299;0.502604;-0.417901;-0.443411
28865;0.735023;9.583227;1.424518;0.016026;-0.001549;0.004544;0.081543;-0.604492;-0.558350;0.613298;0.502677;-0.417989;-0.443246
28866;0.746717;9.649865;1.387921;0.030026;0.002464;0.005610;0.085938;-0.608154;-0.563232;0.613154;0.502742;-0.418273;-0.443103
28867;0.782634;9.640780;1.421208;-0.037856;-0.011242;0.007064;0.085449;-0.612793;-0.567139;0.613260;0.502410;-0.418355;-0.443256
28868;0.752263;9.585901;1.413606;-0.045575;0.006412;0.003136;0.093018;-0.600586;-0.561279;0.613414;0.502093;-0.418341;-0.443415
28869;0.724806;9.558970;1.471962;0.005357;-0.001044;0.001467;0.092529;-0.607422;-0.560547;0.613441;0.502119;-0.418370;-0.443320
28870;0.754815;9.632656;1.458246;0.016675;-0.001388;-0.003026;0.092285;-0.603027;-0.554199;0.613367;0.502230;-0.418465;-0.443208
28871;0.762459;9.656099;1.441265;-0.001772;-0.000458;-0.007300;0.092041;-0.599365;-0.563965;0.613391;0.502308;-0.418428;-0.443120
28872;0.744191;9.617148;1.432298;-0.032518;-0.001650;-0.003585;0.088623;-0.605225;-0.567383;0.613559;0.502124;-0.418305;-0.443214
28873;0.776772;9.552796;1.469355;-0.021767;-0.003590;-0.002278;0.083496;-0.608154;-0.569824;0.613622;0.501937;-0.418318;-0.443324
28874;0.765538;9.560866;1.477142;0.006105;-0.000435;-0.010970;0.094482;-0.604736;-0.556641;0.613499;0.501878;-0.418464;-0.443425
28875;0.792785;9.568287;1.445464;0.028595;-0.003574;-0.010371;0.086426;-0.610596;-0.557373;0.613373;0.502115;-0.418534;-0.443265
28876;0.793224;9.624007;1.439887;0.040431;0.005419;-0.006287;0.085205;-0.612549;-0.561035;0.613164;0.502360;-0.418747;-0.443075
28877;0.787595;9.624689;1.462018;-0.004638;0.009527;-0.001139;0.089600;-0.601074;-0.562256;0.613158;0.502330;-0.418825;-0.443044
28878;0.787450;9.526510;1.456183;-0.016482;0.017475;-0.004708;0.087646;-0.605957;-0.558594;0.613301;0.502294;-0.418690;-0.443012
28879;0.737089;9.611182;1.467424;0.075715;0.034140;-0.007543;0.089844;-0.607666;-0.550293;0.613074;0.502821;-0.418841;-0.442587
28880;0.696539;9.692519;1.360093;0.088440;0.031532;-0.004004;0.089600;-0.602539;-0.565918;0.612814;0.503468;-0.419031;-0.442031
28881;0.764696;9.675496;1.421823;-0.037791;0.013296;-0.006451;0.091309;-0.613037;-0.562988;0.613019;0.503268;-0.418849;-0.442147
28882;0.734933;9.558118;1.432518;-0.037710;0.034120;-0.013800;0.087646;-0.606689;-0.555420;0.613223;0.503222;-0.418569;-0.442182
28883;0.691692;9.579461;1.440133;0.060919;0.029982;-0.013113;0.090332;-0.608398;-0.557617;0.613021;0.503684;-0.418667;-0.441844
28884;0.714611;9.650354;1.384567;0.043856;0.011824;-0.011425;0.090332;-0.609619;-0.562744;0.612837;0.503983;-0.418788;-0.441642
28885;0.716474;9.662400;1.374640;-0.017042;0.011412;-0.014662;0.092041;-0.602783;-0.561279;0.612885;0.503938;-0.418692;-0.441719
28886;0.737571;9.594879;1.400527;-0.022409;0.008860;-0.011552;0.090088;-0.617188;-0.562988;0.613003;0.503862;-0.418544;-0.441781
28887;0.721881;9.579632;1.398929;0.011640;0.010727;-0.009455;0.082031;-0.596436;-0.552979;0.612902;0.503947;-0.418630;-0.441744
28888;0.727065;9.627146;1.413579;0.034005;0.014074;-0.009903;0.095947;-0.600830;-0.563477;0.612795;0.504153;-0.418722;-0.441570
28889;0.701691;9.695120;1.386605;0.021856;0.012667;-0.010024;0.085693;-0.607422;-0.557129;0.612774;0.504318;-0.418680;-0.441452
28890;0.727246;9.651166;1.420375;-0.046627;-0.002437;-0.006000;0.087891;-0.600098;-0.564941;0.612920;0.504038;-0.418610;-0.441634
28891;0.746061;9.559600;1.440743;-0.038123;0.009091;-0.007478;0.084229;-0.605225;-0.562988;0.613104;0.503802;-0.418461;-0.441789
28892;0.719112;9.571881;1.420268;0.016344;0.018446;-0.011058;0.088135;-0.609863;-0.555664;0.613034;0.503888;-0.418513;-0.441739
28893;0.713144;9.647027;1.415373;0.026657;0.010196;-0.004341;0.090088;-0.613770;-0.556396;0.612927;0.504064;-0.418638;-0.441568
28894;0.703422;9.639534;1.342362;0.003107;0.010694;0.000166;0.091064;-0.605469;-0.558594;0.612927;0.504115;-0.418697;-0.441455
28895;0.688784;9.628129;1.402556;-0.033329;0.008327;-0.003307;0.095215;-0.612793;-0.563965;0.613101;0.503962;-0.418570;-0.441507
28896;0.734292;9.586995;1.399162;-0.017932;0.002197;-0.006876;0.090332;-0.602295;-0.550537;0.613149;0.503872;-0.418533;-0.441578
28897;0.797626;9.573156;1.387656;0.001516;0.003767;-0.006082;0.097900;-0.616943;-0.562500;0.613179;0.503952;-0.418511;-0.441466
28898;0.741922;9.657501;1.426438;0.017275;0.020626;-0.011325;0.093506;-0.608398;-0.558838;0.613123;0.504162;-0.418483;-0.441331
28899;0.637908;9.652936;1.333908;0.024068;0.017759;-0.006609;0.085449;-0.606201;-0.554688;0.613073;0.504365;-0.418501;-0.441151
28900;0.654626;9.691922;1.343811;-0.001934;-0.018138;0.000354;0.080811;-0.606934;-0.560059;0.613010;0.504250;-0.418692;-0.441188
28901;0.710973;9.658278;1.413036;-0.074526;-0.009095;0.005598;0.084717;-0.603760;-0.555908;0.613269;0.503709;-0.418651;-0.441486
28902;0.702668;9.488122;1.390651;-0.083711;-0.010439;0.005684;0.094238;-0.610352;-0.554199;0.613606;0.503181;-0.418513;-0.441751
28903;0.759051;9.540496;1.450050;0.011007;-0.013265;0.003593;0.090088;-0.600098;-0.557861;0.613546;0.503230;-0.418667;-0.441632
28904;0.755187;9.698145;1.371939;0.074857;-0.007136;-0.002115;0.093994;-0.607666;-0.550781;0.613242;0.503580;-0.418994;-0.441345
28905;0.797329;9.732924;1.356969;-0.004893;-0.016622;0.000207;0.088135;-0.603027;-0.549805;0.613247;0.503562;-0.419066;-0.441290
28906;0.769796;9.627115;1.384572;-0.076829;-0.009422;0.002596;0.092529;-0.605225;-0.554199;0.613579;0.503156;-0.418877;-0.441470
28907;0.784787;9.547057;1.448881;-0.038723;-0.011467;0.002533;0.083984;-0.606934;-0.559326;0.613751;0.502946;-0.418817;-0.441529
28908;0.817001;9.588714;1.449143;0.001176;-0.007443;0.000501;0.091064;-0.609863;-0.552246;0.613697;0.502866;-0.418982;-0.441539
28909;0.804461;9.628389;1.445701;0.008209;0.007652;-0.005651;0.081787;-0.604004;-0.557861;0.613680;0.503005;-0.418996;-0.441390
28910;0.707181;9.607561;1.419598;-0.027641;-0.002174;-0.002711;0.090088;-0.604004;-0.559326;0.613758;0.502798;-0.419016;-0.441498
28911;0.785608;9.608697;1.412145;-0.009429;-0.013852;0.003311;0.086670;-0.601562;-0.561523;0.613792;0.502678;-0.419102;-0.441506
28912;0.789423;9.624357;1.464097;0.014184;0.003044;-0.005541;0.092529;-0.605469;-0.564453;0.613745;0.502731;-0.419174;-0.441443
28913;0.830157;9.580013;1.421508;-0.021410;-0.009353;-0.009392;0.085693;-0.601807;-0.562988;0.613803;0.502597;-0.419128;-0.441559
28914;0.808848;9.580623;1.357839;0.013882;0.004346;-0.014203;0.089355;-0.604248;-0.563965;0.613723;0.502669;-0.419168;-0.441550
28915;0.759644;9.712295;1.410919;0.056881;-0.001466;-0.011963;0.083740;-0.613281;-0.552979;0.613459;0.502952;-0.419384;-0.441390
28916;0.760811;9.677284;1.357856;-0.032106;-0.000848;-0.001337;0.079590;-0.610596;-0.554688;0.613540;0.502779;-0.419401;-0.441457
28917;0.775561;9.585750;1.403523;-0.061148;0.010581;-0.002361;0.092773;-0.611816;-0.563477;0.613769;0.502463;-0.419277;-0.441617
28918;0.763776;9.526705;1.397596;0.006323;0.018380;-0.001519;0.092285;-0.611572;-0.562012;0.613805;0.502559;-0.419256;-0.441477
28919;0.779150;9.663678;1.415257;0.021121;0.014258;-0.003848;0.088135;-0.612061;-0.561523;0.613756;0.502728;-0.419302;-0.441309
28920;0.802307;9.757532;1.398680;0.024694;0.020791;0.001465;0.085693;-0.612061;-0.553955;0.613709;0.502892;-0.419394;-0.441101
28921;0.795909;9.777246;1.397831;-0.027399;0.020364;0.000503;0.097656;-0.604004;-0.554443;0.613872;0.502824;-0.419299;-0.441041
28922;0.779968;9.639526;1.385748;-0.061654;0.034390;0.010155;0.089844;-0.602051;-0.559814;0.614372;0.502675;-0.418887;-0.440906
28923;0.811573;9.617933;1.433353;-0.017349;0.046837;0.016475;0.083740;-0.607666;-0.556396;0.614709;0.502687;-0.418680;-0.440619
28924;0.953197;9.738841;1.469950;0.021653;0.068628;0.029217;0.094482;-0.605957;-0.555176;0.614940;0.502913;-0.418649;-0.440068
28925;0.986681;9.788888;1.422676;0.018211;0.131628;0.024240;0.096436;-0.609131;-0.551025;0.615462;0.503451;-0.418141;-0.439205
28926;0.989362;9.828503;1.342003;0.054897;0.182009;0.013458;0.090576;-0.600830;-0.561523;0.615957;0.504429;-0.417465;-0.438031
28927;0.885297;9.884389;1.300108;0.129766;0.238397;0.001613;0.098633;-0.607910;-0.559326;0.616289;0.505910;-0.416757;-0.436527
28928;0.792686;9.889678;1.237687;0.131191;0.283904;0.003822;0.097412;-0.612793;-0.549072;0.616782;0.507602;-0.415800;-0.434776
28929;0.718272;9.799964;1.298772;0.054810;0.334253;0.014935;0.096680;-0.609863;-0.552734;0.617764;0.509063;-0.414406;-0.433002
28930;0.764716;9.658524;1.360362;0.043712;0.396122;0.032295;0.099365;-0.604492;-0.547852;0.619061;0.510571;-0.412741;-0.430958
28931;0.761564;9.650814;1.260919;0.069499;0.445492;0.060027;0.114502;-0.610107;-0.546387;0.620539;0.512305;-0.410995;-0.428437
28932;0.625071;9.705910;1.116316;0.074492;0.489488;0.093919;0.116211;-0.619629;-0.546875;0.622304;0.514183;-0.409081;-0.425449
28933;0.472749;9.631834;1.082269;-0.072447;0.515121;0.122593;0.107910;-0.606689;-0.541748;0.624816;0.515256;-0.406702;-0.422741
28934;0.351254;9.555723;1.338678;-0.220856;0.518699;0.130488;0.119385;-0.609619;-0.547119;0.627983;0.515470;-0.403855;-0.420511
28935;0.205400;9.591953;1.365746;-0.164551;0.581131;0.121928;0.121094;-0.604736;-0.549805;0.631102;0.516253;-0.400771;-0.417823
28936;-0.143842;9.453956;1.268624;-0.143775;0.664233;0.084950;0.127441;-0.609619;-0.548340;0.634266;0.517515;-0.397154;-0.414914
28937;-0.574406;9.187407;1.448983;-0.381610;0.630403;0.053606;0.135742;-0.600342;-0.557861;0.638187;0.517504;-0.392768;-0.413086
28938;-0.998651;9.106382;1.692123;-0.488761;0.561887;0.058125;0.132080;-0.593506;-0.554199;0.642389;0.516641;-0.388311;-0.411865
28939;-1.175076;9.220823;1.608654;-0.274549;0.459935;0.085284;0.138428;-0.607910;-0.553955;0.645365;0.516447;-0.385318;-0.410265
28940;-1.136656;9.713271;1.503602;-0.100434;0.325077;0.114089;0.145020;-0.596436;-0.552979;0.647176;0.516663;-0.383834;-0.408527
28941;-0.973144;10.054221;1.226256;-0.166246;0.211045;0.131000;0.148682;-0.599365;-0.560791;0.649042;0.516115;-0.382688;-0.407332
28942;-0.762673;9.956801;0.872782;-0.232630;0.094536;0.161927;0.143555;-0.595703;-0.554688;0.650921;0.514703;-0.382069;-0.406700
28943;-0.571867;9.458447;0.407360;-0.167856;-0.015839;0.189149;0.146484;-0.591797;-0.562744;0.652232;0.513184;-0.382425;-0.406186
28944;-0.309403;8.898039;-0.034409;-0.045977;-0.162432;0.206391;0.132324;-0.595947;-0.568115;0.652658;0.511784;-0.383984;-0.405797
28945;0.079087;8.540812;-0.038385;-0.100669;-0.362674;0.242957;0.134521;-0.595459;-0.571045;0.652702;0.509194;-0.386746;-0.406361
28946;0.753249;8.642223;0.535185;-0.285055;-0.597568;0.311256;0.124023;-0.595703;-0.575928;0.653040;0.504627;-0.390348;-0.408067
28947;1.669246;9.252512;1.276353;-0.435839;-0.724426;0.394800;0.110840;-0.591553;-0.571533;0.653830;0.498499;-0.394492;-0.410344
28948;2.533516;9.657415;1.300853;-0.439563;-0.570028;0.464643;0.103760;-0.583984;-0.574951;0.655321;0.492640;-0.398083;-0.411570
28949;2.883418;10.022601;1.402714;-0.527537;-0.392605;0.438145;0.088379;-0.587158;-0.585205;0.657682;0.487002;-0.400221;-0.412440
28950;3.127703;10.338781;1.659370;-0.663565;-0.329226;0.388950;0.080811;-0.573975;-0.584717;0.660528;0.480911;-0.401443;-0.413849
28951;3.282335;10.395464;2.040773;-0.754093;-0.214241;0.329053;0.073730;-0.561279;-0.593994;0.663907;0.474912;-0.401435;-0.415375
28952;3.152970;10.358710;2.122323;-0.535271;-0.026955;0.258958;0.074219;-0.562012;-0.604980;0.666797;0.470964;-0.400841;-0.415815
28953;2.535566;10.358087;1.710806;-0.047242;0.165132;0.179571;0.072998;-0.557861;-0.602539;0.668140;0.470662;-0.400537;-0.414290
28954;1.650928;10.439665;1.164245;0.204863;0.258479;0.107652;0.077881;-0.558594;-0.602539;0.668560;0.472319;-0.400295;-0.411954
28955;1.056564;10.196620;0.626363;0.098431;0.216731;0.060520;0.072754;-0.564941;-0.597656;0.669130;0.473412;-0.399683;-0.410366
28956;0.728255;9.776492;0.350414;0.017203;0.149058;0.033755;0.077393;-0.564209;-0.608643;0.669613;0.473875;-0.399176;-0.409535
28957;0.633190;9.554253;0.214525;0.078515;0.071589;0.025717;0.078125;-0.564453;-0.596924;0.669613;0.474428;-0.399219;-0.408852
28958;0.789321;9.490623;0.188176;0.085416;-0.045464;0.038755;0.077148;-0.555420;-0.595459;0.669230;0.474622;-0.399996;-0.408495
28959;1.053966;9.364177;0.288666;-0.093843;-0.130412;0.050005;0.075684;-0.565430;-0.601074;0.669348;0.473478;-0.400635;-0.409003
28960;1.348497;9.231040;0.433565;-0.303856;-0.149851;0.057562;0.066650;-0.565430;-0.607422;0.670211;0.471070;-0.400739;-0.410267
28961;1.607616;9.076217;0.630732;-0.391116;-0.158298;0.068967;0.069580;-0.560547;-0.606445;0.671345;0.468040;-0.400727;-0.411888
28962;1.990443;8.995721;0.820619;-0.431742;-0.154969;0.080082;0.063965;-0.557861;-0.610107;0.672727;0.464812;-0.400530;-0.413478
28963;2.262154;8.961509;1.040440;-0.467789;-0.090183;0.086892;0.069824;-0.544189;-0.621094;0.674440;0.461556;-0.399910;-0.414932
28964;2.446204;8.869299;1.075707;-0.445896;-0.020047;0.084367;0.064453;-0.550781;-0.617432;0.676394;0.458679;-0.398826;-0.415984
28965;2.429617;8.737138;1.117631;-0.367834;0.062340;0.079964;0.063965;-0.542236;-0.616455;0.678216;0.456562;-0.397625;-0.416495
28966;2.305679;8.640139;1.117170;-0.312646;0.134383;0.061484;0.061279;-0.540771;-0.623779;0.680014;0.455071;-0.396118;-0.416632
28967;2.198063;8.665627;1.113958;-0.196911;0.172060;0.051242;0.066650;-0.541992;-0.624268;0.681415;0.454354;-0.394806;-0.416370
28968;2.112065;8.827536;1.058393;-0.029063;0.193594;0.042562;0.079346;-0.537109;-0.618164;0.682254;0.454739;-0.393880;-0.415452
28969;1.994895;9.067756;1.042732;-0.017351;0.222388;0.031926;0.070557;-0.533203;-0.630371;0.683246;0.455427;-0.392631;-0.414248
28970;1.866879;9.110714;0.915161;-0.147843;0.219423;0.017448;0.072021;-0.535889;-0.619629;0.684561;0.455256;-0.391017;-0.413792
28971;1.764883;9.094924;1.016141;-0.322243;0.235749;-0.012452;0.078857;-0.535645;-0.619629;0.686460;0.454300;-0.388616;-0.413960
28972;1.486497;9.160083;0.942336;-0.379429;0.280927;-0.050249;0.077148;-0.532959;-0.635254;0.688623;0.453344;-0.385565;-0.414267
28973;1.136240;9.862876;1.158267;-0.139160;0.222220;-0.078623;0.080566;-0.524658;-0.630371;0.689516;0.453555;-0.383646;-0.414333
28974;1.234375;10.298026;1.013441;-0.018361;0.100787;-0.078865;0.089111;-0.523193;-0.625732;0.689590;0.454055;-0.382806;-0.414439
28975;1.333397;10.177994;0.957278;-0.419421;0.017207;-0.118723;0.086182;-0.520508;-0.636475;0.690868;0.452160;-0.380808;-0.416220
28976;1.363489;9.983432;1.315674;-0.667564;-0.121679;-0.178031;0.082031;-0.519043;-0.641357;0.692352;0.448471;-0.378584;-0.419758
28977;1.758640;9.683441;1.396122;-0.379739;-0.195494;-0.227538;0.083740;-0.509766;-0.636963;0.692252;0.446316;-0.377684;-0.423018
28978;2.191651;9.838950;1.786146;-0.171650;-0.227486;-0.286855;0.085693;-0.510986;-0.639893;0.691109;0.445468;-0.377426;-0.426000
28979;2.801139;10.953811;3.092452;-0.226317;-0.365661;-0.337356;0.081787;-0.509033;-0.644043;0.689562;0.443990;-0.377559;-0.429913
28980;3.248056;13.205415;3.345949;0.001242;-0.158240;-0.336041;0.076416;-0.507568;-0.649414;0.687776;0.444522;-0.377360;-0.432394
28981;2.831228;14.511636;2.750074;0.437984;0.370974;-0.349773;0.090820;-0.507324;-0.649902;0.685872;0.449414;-0.375736;-0.431773
28982;1.698786;15.166620;3.167408;0.167042;0.372749;-0.408767;0.090820;-0.509277;-0.642578;0.684895;0.452969;-0.372769;-0.432181
28983;1.008054;13.175985;2.539323;-0.485815;0.088782;-0.551505;0.092285;-0.504883;-0.651611;0.684845;0.452172;-0.368632;-0.436622
28984;0.734371;11.368831;2.890646;-0.421731;-0.061351;-0.771998;0.107666;-0.493652;-0.650879;0.683171;0.451801;-0.364811;-0.442794
28985;0.616644;9.883651;3.127830;0.311305;-0.081512;-0.827422;0.112549;-0.499512;-0.649414;0.678622;0.455762;-0.363407;-0.446865
28986;0.410359;8.478698;3.365607;0.458102;0.062894;-0.836823;0.115723;-0.503906;-0.639648;0.673846;0.461094;-0.361706;-0.449992
28987;0.255631;7.462510;3.824722;-0.466391;-0.001254;-0.765595;0.133545;-0.489014;-0.642334;0.672596;0.460759;-0.357202;-0.455766
28988;0.502795;6.713877;3.882566;-1.468708;-0.114956;-0.523862;0.132324;-0.477295;-0.651367;0.675941;0.453672;-0.350207;-0.463293
28989;0.880234;6.140266;4.044899;-1.891183;-0.006294;-0.272378;0.133057;-0.461182;-0.668701;0.681954;0.443800;-0.341919;-0.470183
28990;0.744665;6.368081;4.857968;-1.536953;0.169903;-0.103954;0.134766;-0.439941;-0.688477;0.687630;0.436052;-0.334616;-0.474401
28991;0.056333;7.011571;5.635802;-0.936297;0.150803;-0.029591;0.135742;-0.431641;-0.672119;0.691244;0.431338;-0.330054;-0.476648
28992;-0.097990;8.087709;5.908589;-0.547620;-0.070989;-0.001033;0.125244;-0.422852;-0.693848;0.693026;0.428023;-0.328351;-0.478222
28993;0.567904;9.027855;5.871387;-0.329433;-0.171196;-0.031855;0.125488;-0.418945;-0.691162;0.693324;0.425447;-0.328189;-0.480196
28994;0.946329;8.710998;5.021619;-0.420577;0.023827;-0.089347;0.131348;-0.412109;-0.691162;0.694325;0.423332;-0.326265;-0.481928
28995;0.480010;8.183193;4.528104;-0.401998;0.200387;-0.127544;0.140137;-0.416016;-0.702393;0.695721;0.422184;-0.323150;-0.483019
28996;0.116425;7.984586;4.023541;0.055037;0.067729;-0.106538;0.138916;-0.406494;-0.698730;0.695300;0.423130;-0.322675;-0.483114
28997;-0.042538;8.161650;3.641695;0.408476;-0.047128;-0.076715;0.130371;-0.406250;-0.688721;0.693403;0.425518;-0.324402;-0.482586
28998;-0.152464;8.422592;3.351963;0.313303;-0.073644;-0.063364;0.130615;-0.418945;-0.690674;0.691657;0.427154;-0.326054;-0.482534
28999;0.033593;8.525469;3.133894;0.046061;-0.213968;-0.037169;0.134277;-0.417969;-0.696533;0.690570;0.426649;-0.327549;-0.483524
29000;0.417284;8.336510;3.147692;-0.194275;-0.257331;-0.021407;0.131348;-0.413574;-0.687500;0.690393;0.424546;-0.328294;-0.485120
29001;0.516410;8.054199;3.123532;-0.329510;-0.148361;-0.027595;0.135254;-0.412842;-0.692139;0.691051;0.422185;-0.327780;-0.486588
29002;0.447939;7.806826;3.039683;-0.260504;-0.099097;-0.015957;0.121094;-0.408203;-0.695801;0.691779;0.420439;-0.327218;-0.487444
29003;0.325358;7.667534;2.956714;-0.083594;-0.079251;-0.022845;0.122803;-0.407471;-0.695312;0.691512;0.419658;-0.327496;-0.488309
29004;0.056715;7.795431;2.879457;0.063508;-0.032596;-0.048259;0.119873;-0.412109;-0.692383;0.690846;0.420023;-0.327953;-0.488630
29005;-0.231967;7.922133;2.691755;0.112631;-0.040068;-0.070774;0.120850;-0.412109;-0.698242;0.689841;0.420720;-0.328615;-0.489006
29006;-0.464728;7.959775;2.534764;0.103113;-0.102306;-0.083228;0.133789;-0.411377;-0.697510;0.688620;0.421099;-0.329563;-0.489763
29007;-0.567051;7.852139;2.419491;0.034613;-0.167780;-0.093370;0.124268;-0.405273;-0.700928;0.687842;0.420974;-0.330291;-0.490472
29008;-0.486554;7.585520;2.533520;-0.047219;-0.238693;-0.081946;0.118652;-0.409424;-0.692871;0.686894;0.419902;-0.331315;-0.492026
29009;-0.395752;7.334619;2.778135;-0.051195;-0.274915;-0.053215;0.122314;-0.407959;-0.695557;0.685958;0.418644;-0.332647;-0.493503
29010;-0.231328;7.621665;3.077279;0.041197;-0.302796;0.001196;0.110596;-0.411377;-0.698730;0.685039;0.417698;-0.334578;-0.494275
29011;0.044563;8.039787;3.302774;0.093202;-0.331421;0.088367;0.111816;-0.409912;-0.700439;0.683911;0.416590;-0.337379;-0.494868
29012;0.271957;8.432949;3.624324;-0.130311;-0.288139;0.166969;0.105957;-0.407959;-0.694580;0.684179;0.414195;-0.339163;-0.495288
29013;0.393853;9.112707;4.000467;-0.251220;-0.205716;0.269001;0.096191;-0.407227;-0.706787;0.685534;0.411194;-0.340313;-0.495126
29014;0.347795;9.740684;4.232768;-0.168323;-0.109945;0.356563;0.098633;-0.407227;-0.701416;0.686945;0.408677;-0.341725;-0.494282
29015;0.248188;10.036113;4.246905;-0.065628;-0.012583;0.376674;0.096436;-0.409912;-0.699707;0.688658;0.407229;-0.342888;-0.492283
29016;0.179357;10.409154;4.460395;0.092663;-0.037973;0.361596;0.085205;-0.415039;-0.700684;0.689743;0.406670;-0.344765;-0.489910
29017;0.119044;10.577567;4.596354;0.336217;-0.064957;0.319816;0.079346;-0.413330;-0.691162;0.689435;0.407423;-0.347837;-0.487541
29018;0.559953;12.532234;5.558859;0.720523;-0.348209;0.351545;0.073242;-0.424805;-0.690186;0.687056;0.409099;-0.354214;-0.484895
29019;1.850774;15.061042;5.858734;1.153052;-0.488434;0.455105;0.067139;-0.443848;-0.691406;0.683153;0.412341;-0.363463;-0.480804
29020;3.065224;14.886785;5.269502;0.548267;-0.156269;0.492269;0.071289;-0.439697;-0.682129;0.682479;0.413327;-0.368471;-0.477088
29021;3.278784;12.145014;5.212860;-0.543879;0.189263;0.422642;0.058105;-0.437012;-0.680176;0.686685;0.409754;-0.366688;-0.475505
29022;2.823098;9.142520;5.119833;-0.573266;0.355051;0.278563;0.062500;-0.436035;-0.687744;0.690528;0.407007;-0.363570;-0.474692
29023;1.986273;7.564094;4.597221;0.332377;0.484869;0.147211;0.073242;-0.431396;-0.687256;0.691255;0.410427;-0.362774;-0.471287
29024;0.787256;7.185491;4.444009;1.006139;0.397383;0.025691;0.072266;-0.434082;-0.683838;0.689051;0.417699;-0.364597;-0.466696
29025;-0.089312;7.796175;4.658644;0.894838;0.048091;-0.121242;0.080566;-0.455566;-0.674072;0.685249;0.423178;-0.367656;-0.464955
29026;0.181177;8.809547;4.693699;0.400568;-0.495890;-0.093324;0.068604;-0.460693;-0.661621;0.681986;0.423879;-0.371740;-0.465865
29027;0.909141;8.817989;4.781366;-0.292140;-0.763227;-0.054252;0.060303;-0.453613;-0.671387;0.680333;0.419486;-0.374856;-0.469746
29028;1.503694;8.793664;5.093363;-0.983768;-0.758973;-0.097247;0.050781;-0.447266;-0.676758;0.680772;0.411167;-0.375138;-0.476196
29029;2.183286;9.350070;5.460151;-0.998989;-0.834746;-0.054581;0.044922;-0.439209;-0.684326;0.681130;0.402342;-0.375877;-0.482596
29030;2.804950;9.128942;5.210749;-0.799905;-0.613360;-0.081516;0.035400;-0.416504;-0.701172;0.681510;0.395678;-0.375933;-0.487502
29031;2.568814;8.237326;4.684007;-0.681306;-0.247458;-0.153718;0.037842;-0.415771;-0.701660;0.681971;0.391061;-0.374338;-0.491790
29032;1.876551;7.763144;4.588191;-0.345343;-0.085377;-0.205251;0.033936;-0.415771;-0.688965;0.681912;0.389376;-0.372846;-0.494335
29033;1.403401;7.735687;4.435071;0.105207;-0.067176;-0.249164;0.035889;-0.415283;-0.705811;0.680305;0.390607;-0.372923;-0.495520
29034;1.070960;7.899260;4.001294;0.391421;0.013358;-0.296202;0.036621;-0.413330;-0.694092;0.677637;0.393736;-0.373685;-0.496124
29035;0.760048;7.975904;3.499611;0.405267;0.056283;-0.323766;0.052002;-0.418213;-0.689941;0.674931;0.397200;-0.374159;-0.496695
29036;0.607560;7.834568;3.085268;0.228317;0.003290;-0.317427;0.054443;-0.424561;-0.687988;0.673209;0.399647;-0.373903;-0.497261
29037;0.717331;7.551593;2.804110;0.037071;-0.070048;-0.292816;0.034668;-0.426514;-0.699951;0.672016;0.400677;-0.373331;-0.498473
29038;0.957572;7.161356;2.652562;-0.094243;-0.072224;-0.261921;0.040283;-0.422607;-0.690430;0.670360;0.400407;-0.372913;-0.501226
29039;1.135613;6.783092;2.595364;-0.201198;-0.036954;-0.224954;0.049805;-0.427490;-0.688965;0.669633;0.399736;-0.371783;-0.503567
29040;1.210487;6.513733;2.543717;-0.291449;0.021904;-0.172329;0.041504;-0.404541;-0.698242;0.670069;0.398902;-0.369853;-0.505069
29041;1.297547;6.463970;2.600532;-0.284973;0.077950;-0.122776;0.045898;-0.406738;-0.693604;0.670220;0.397727;-0.368171;-0.507019
29042;1.473136;6.548692;2.494517;-0.201522;0.113329;-0.058235;0.048096;-0.412354;-0.702637;0.670728;0.397159;-0.366702;-0.507856
29043;1.641256;6.789892;2.070281;-0.022584;0.152366;0.031098;0.052002;-0.414307;-0.688721;0.671143;0.397505;-0.366070;-0.507493
29044;1.784190;7.304078;2.374941;0.217577;0.118678;0.080609;0.049072;-0.415039;-0.698975;0.671189;0.399131;-0.366605;-0.505767
29045;1.990175;7.825898;2.504119;0.338246;0.136111;0.094661;0.058594;-0.410156;-0.690674;0.670600;0.401229;-0.367808;-0.504012
29046;1.860125;8.246006;2.576674;0.278569;0.254042;0.115251;0.050537;-0.421875;-0.678223;0.671035;0.403524;-0.367955;-0.501487
29047;1.359763;9.242984;3.114990;0.202539;0.382021;0.123989;0.072998;-0.423096;-0.686279;0.671915;0.405947;-0.367200;-0.498901
29048;0.937657;10.175459;3.619549;0.178424;0.377027;0.135170;0.057129;-0.429199;-0.689453;0.673551;0.408335;-0.366053;-0.495577
29049;0.531398;10.262588;3.759650;-0.235403;0.322102;0.078987;0.064453;-0.426025;-0.695068;0.675326;0.408016;-0.363807;-0.495077
29050;0.256408;10.117333;3.333655;-0.402646;0.106943;-0.035553;0.071777;-0.416260;-0.693848;0.676682;0.406239;-0.361609;-0.496296
29051;0.849846;9.680597;3.573549;-0.053916;-0.195672;-0.229667;0.068115;-0.423584;-0.691162;0.675394;0.405834;-0.361752;-0.498274
29052;1.967706;9.765233;3.560206;0.605126;-0.302842;-0.353185;0.062988;-0.424805;-0.691162;0.670991;0.409126;-0.364816;-0.499296
29053;2.977809;10.024700;3.884348;1.114894;-0.288771;-0.374052;0.064697;-0.439941;-0.677002;0.664515;0.415203;-0.369975;-0.499143
29054;3.617443;11.331232;4.245438;1.262893;-0.113244;-0.313182;0.064453;-0.441650;-0.662598;0.658442;0.422723;-0.374826;-0.497257
29055;2.732411;13.060081;3.965004;1.727996;0.444166;-0.227354;0.070801;-0.464844;-0.656006;0.652661;0.434677;-0.378824;-0.491509
29056;0.475519;14.858654;3.825917;1.924368;0.758313;-0.290008;0.077148;-0.490479;-0.632812;0.646683;0.449038;-0.381631;-0.484277
29057;-1.040728;14.034609;3.975828;0.802775;0.673697;-0.431196;0.084961;-0.505371;-0.632568;0.643877;0.457429;-0.379790;-0.481603
29058;-0.993916;11.572619;4.617587;-0.776776;0.460240;-0.485615;0.102539;-0.482910;-0.639404;0.645986;0.456563;-0.372627;-0.485181
29059;-0.543221;9.725681;5.299904;-0.886881;0.530789;-0.434907;0.102539;-0.473633;-0.648926;0.649179;0.455218;-0.364626;-0.488253
29060;0.179946;8.685593;5.568933;-0.502158;0.583047;-0.206055;0.114014;-0.460205;-0.647705;0.651585;0.455290;-0.359001;-0.489149
29061;1.102395;7.916099;5.243823;-0.642606;0.581375;0.106527;0.114014;-0.459229;-0.652832;0.655942;0.453684;-0.353863;-0.488561
29062;1.204897;7.606832;4.717626;-0.652318;0.869875;0.288524;0.122559;-0.452148;-0.655518;0.661719;0.452613;-0.347874;-0.486059
29063;0.228915;8.664695;4.798397;-0.003172;1.101016;0.351067;0.135986;-0.452148;-0.652100;0.665996;0.455871;-0.343394;-0.480325
29064;-0.469344;10.165962;4.869754;0.439686;0.811705;0.405290;0.142090;-0.472168;-0.643555;0.668099;0.460299;-0.342358;-0.473876
29065;-0.005553;10.585321;4.634085;0.206978;0.506052;0.394326;0.149170;-0.464844;-0.646973;0.670335;0.462418;-0.341892;-0.468968
29066;0.258529;9.471791;4.086290;-0.048875;0.616690;0.276101;0.149902;-0.463623;-0.643066;0.673338;0.463724;-0.339406;-0.465166
29067;-0.007853;8.184974;3.482486;0.171773;0.617187;0.215957;0.159668;-0.481934;-0.637695;0.675169;0.466415;-0.337572;-0.461140
29068;0.004913;7.574693;2.897403;0.629858;0.439692;0.228827;0.157715;-0.462891;-0.625977;0.675040;0.471158;-0.338297;-0.455945
29069;0.118851;7.555642;2.336750;0.958302;0.364921;0.255776;0.162842;-0.487793;-0.618408;0.673247;0.477157;-0.340952;-0.450345
29070;0.010930;7.723906;1.910509;0.981558;0.400891;0.278403;0.165283;-0.490479;-0.619385;0.671654;0.483450;-0.343421;-0.444093
29071;-0.156904;7.920340;1.708249;0.658064;0.370097;0.298372;0.161133;-0.508789;-0.610840;0.671109;0.487556;-0.345099;-0.439100
29072;-0.198002;7.894971;1.736903;0.188007;0.279677;0.311227;0.157959;-0.508057;-0.610596;0.672182;0.488702;-0.345637;-0.435748
29073;-0.325791;7.546453;1.623958;-0.145719;0.269035;0.287827;0.161377;-0.512695;-0.612061;0.674360;0.487927;-0.345032;-0.433727
29074;-0.543426;7.217073;1.636322;-0.255663;0.240202;0.253646;0.162598;-0.500977;-0.615479;0.676875;0.486580;-0.343963;-0.432168
29075;-0.736098;7.262725;1.733511;-0.207257;0.130129;0.197571;0.166992;-0.497314;-0.612793;0.678611;0.485187;-0.343515;-0.431368
29076;-0.724750;7.364203;1.794133;-0.111000;0.026335;0.152714;0.156494;-0.492676;-0.609131;0.679665;0.484164;-0.343675;-0.430730
29077;-0.694875;7.246251;1.832062;-0.135735;0.022648;0.097693;0.162109;-0.495850;-0.616455;0.680445;0.483104;-0.343664;-0.430698
29078;-0.987862;6.935542;1.860514;-0.144624;0.075037;0.021810;0.161377;-0.499756;-0.617188;0.681201;0.482402;-0.342977;-0.430837
29079;-1.288567;7.247186;2.036033;0.113343;0.007945;-0.018673;0.166992;-0.502686;-0.612305;0.680596;0.483074;-0.343417;-0.430689
29080;-1.192640;8.086383;2.202470;0.414650;-0.225321;-0.000002;0.149902;-0.507080;-0.610596;0.678366;0.484658;-0.346171;-0.430223
29081;-0.888268;8.677013;2.532818;0.193931;-0.452646;0.007270;0.156250;-0.503906;-0.609619;0.676050;0.484035;-0.349704;-0.431710
29082;-0.305237;9.020798;3.106506;-0.259551;-0.615513;0.034963;0.141113;-0.497070;-0.616699;0.675383;0.480227;-0.352462;-0.434753
29083;0.353310;9.016308;3.144898;-0.329145;-0.675445;0.095594;0.142090;-0.497559;-0.618896;0.674753;0.475485;-0.355739;-0.438259
29084;1.033595;9.242506;3.541530;-0.127869;-0.583992;0.104250;0.130371;-0.495605;-0.621582;0.673852;0.472282;-0.359065;-0.440392
29085;1.445639;10.547246;3.734949;0.235247;-0.348189;0.158810;0.119141;-0.495605;-0.614746;0.672310;0.471768;-0.362684;-0.440335
29086;0.887708;11.308896;3.556921;0.476029;0.052232;0.109445;0.123535;-0.505127;-0.617676;0.670799;0.474222;-0.364763;-0.438280
29087;0.251187;12.403601;4.183255;0.455637;-0.018047;0.093335;0.121582;-0.505371;-0.621094;0.669099;0.476324;-0.367097;-0.436647
29088;1.286643;15.308396;4.481241;0.888891;-0.477919;0.231486;0.108398;-0.518311;-0.601318;0.664573;0.478585;-0.374258;-0.435004
29089;2.837726;14.855889;3.293677;0.663597;-0.224231;0.205173;0.114014;-0.527344;-0.597900;0.661767;0.480743;-0.378909;-0.432871
29090;3.300625;13.240607;3.054449;-0.071821;0.088973;0.156409;0.109619;-0.530029;-0.606445;0.662865;0.480168;-0.378867;-0.431866
29091;2.588075;10.285114;2.892345;-0.151178;0.183793;-0.000963;0.119385;-0.521729;-0.610107;0.663825;0.479873;-0.377550;-0.431873
29092;1.249825;8.034420;2.607177;0.376450;0.253105;-0.192940;0.117676;-0.525879;-0.592773;0.662234;0.483305;-0.376967;-0.430997
29093;-0.250065;7.991041;3.099080;0.855307;0.134373;-0.300628;0.121582;-0.539062;-0.583496;0.658104;0.489453;-0.378130;-0.429363
29094;-0.676968;9.318149;3.350746;0.774278;-0.357861;-0.249714;0.119385;-0.547363;-0.594482;0.652960;0.493264;-0.381831;-0.429580
29095;0.306960;10.636514;3.252509;0.039841;-0.901189;-0.130013;0.115234;-0.534668;-0.593506;0.649169;0.490468;-0.386640;-0.434202
29096;1.390791;10.528284;3.313609;-1.111385;-1.050336;-0.133141;0.099365;-0.522705;-0.612305;0.649529;0.480826;-0.388016;-0.443128
29097;2.206630;10.972907;4.270352;-1.634762;-0.910681;-0.211721;0.093018;-0.513916;-0.618408;0.651764;0.468872;-0.386492;-0.453857
29098;2.476051;10.994783;4.642905;-1.681257;-0.697147;-0.279888;0.090088;-0.495117;-0.630371;0.654722;0.457802;-0.383022;-0.463735
29099;2.252552;10.172791;4.258163;-1.473584;-0.429482;-0.294180;0.084473;-0.487305;-0.646240;0.657652;0.448915;-0.378678;-0.471775
29100;1.743416;9.265340;3.874596;-0.898440;-0.221728;-0.335897;0.091064;-0.465820;-0.652832;0.658813;0.444082;-0.375277;-0.477414
29101;1.211327;8.700392;3.552566;-0.114203;-0.186269;-0.370238;0.084229;-0.466553;-0.648926;0.657023;0.443734;-0.374661;-0.480676
29102;0.810905;8.434553;3.037237;0.419943;-0.238574;-0.392554;0.088623;-0.470215;-0.642090;0.653023;0.446233;-0.376340;-0.482498
29103;0.441877;8.545328;2.606027;0.595288;-0.245059;-0.430537;0.096924;-0.480469;-0.640625;0.648319;0.449844;-0.378502;-0.483796
29104;0.310430;8.673093;2.274644;0.443690;-0.317652;-0.487726;0.088379;-0.473877;-0.643311;0.643786;0.452533;-0.380168;-0.486031
29105;0.344880;8.394907;1.965194;0.028373;-0.413603;-0.504487;0.089844;-0.486328;-0.645752;0.640082;0.452426;-0.380835;-0.490481
29106;0.486795;7.753198;1.899569;-0.440683;-0.411440;-0.492589;0.080811;-0.473633;-0.657227;0.638276;0.449852;-0.379538;-0.496173
29107;0.831607;6.903337;1.963950;-0.812521;-0.407896;-0.443710;0.090088;-0.462158;-0.650879;0.637701;0.444930;-0.377077;-0.503178
29108;1.127633;6.209443;2.061327;-0.915270;-0.374952;-0.372431;0.084229;-0.453613;-0.668701;0.638281;0.439590;-0.373944;-0.509435
29109;1.432541;5.765927;2.238483;-0.788319;-0.337708;-0.288347;0.083008;-0.447266;-0.659424;0.638554;0.434628;-0.371625;-0.515017
29110;1.639410;5.754026;2.341845;-0.574498;-0.238406;-0.199980;0.075928;-0.438232;-0.669189;0.639109;0.431216;-0.369708;-0.518564
29111;1.804413;5.842689;2.301432;-0.407279;-0.160240;-0.088101;0.072510;-0.441406;-0.678467;0.639540;0.428544;-0.368646;-0.520998
29112;1.806586;6.161466;2.324658;-0.273549;-0.012990;-0.014511;0.072754;-0.425049;-0.675049;0.640182;0.426961;-0.367696;-0.522180
29113;1.751803;6.867453;2.627297;-0.055712;0.119783;0.035790;0.072998;-0.433105;-0.675049;0.640668;0.426935;-0.367159;-0.521982
29114;1.841758;7.475610;2.804557;0.102885;0.167279;0.086411;0.077148;-0.425781;-0.675049;0.641051;0.427887;-0.367176;-0.520719
29115;1.812492;8.142619;3.017912;-0.010579;0.266034;0.112765;0.080078;-0.439941;-0.676270;0.642193;0.428505;-0.366313;-0.519409
29116;1.648255;8.747543;3.213574;-0.105138;0.320005;0.133756;0.088623;-0.432129;-0.672852;0.644063;0.428889;-0.364741;-0.517881
29117;1.551440;9.677659;3.877254;-0.088189;0.301773;0.168822;0.085205;-0.424316;-0.674072;0.646061;0.429197;-0.363405;-0.516074
29118;1.360904;10.445204;3.466619;0.072418;0.383268;0.185587;0.085938;-0.429443;-0.677002;0.647630;0.430570;-0.362479;-0.513608
29119;0.742938;11.807342;2.895457;0.542104;0.459338;0.110832;0.084961;-0.440430;-0.673096;0.647343;0.434991;-0.362925;-0.509917
29120;0.180989;12.643950;2.726144;0.686652;0.298728;0.030369;0.094238;-0.448486;-0.673096;0.645651;0.439749;-0.364561;-0.506805
29121;0.815379;12.246207;3.710362;0.082390;0.008584;-0.072641;0.098145;-0.442627;-0.662598;0.644817;0.440280;-0.364864;-0.507188
29122;2.142699;12.100747;4.549916;-0.155396;0.042516;-0.106987;0.099121;-0.446533;-0.665283;0.645012;0.439889;-0.363708;-0.508108
29123;1.551731;11.382824;3.837162;0.475818;0.502177;-0.153103;0.097412;-0.444336;-0.664795;0.644104;0.444990;-0.362566;-0.505629
29124;-0.039971;12.436183;3.805097;1.196254;0.443838;-0.187494;0.109375;-0.458008;-0.655029;0.639910;0.453650;-0.364782;-0.501648
29125;-1.547235;13.106160;4.036718;1.402992;0.387340;-0.304695;0.118652;-0.474365;-0.639404;0.634273;0.463495;-0.367634;-0.497711
29126;-1.759435;12.490890;4.332181;0.575936;0.150738;-0.391220;0.120605;-0.483643;-0.637451;0.630825;0.468292;-0.367836;-0.497453
29127;-1.374603;10.328272;4.466052;-0.483880;0.165466;-0.446844;0.125000;-0.477295;-0.639404;0.631241;0.467709;-0.363384;-0.500734
29128;-0.794918;8.550539;4.565548;-0.883380;0.236390;-0.425382;0.134277;-0.464600;-0.651855;0.633512;0.465256;-0.356932;-0.504775
29129;-0.074146;7.691472;4.644238;-0.523994;0.111112;-0.218558;0.132812;-0.455322;-0.645020;0.634748;0.463446;-0.353535;-0.507274
29130;0.677633;7.372455;4.699338;-0.262046;0.029821;0.077698;0.127686;-0.452881;-0.656982;0.636145;0.461925;-0.352664;-0.507516
29131;0.845129;7.868489;4.730115;-0.274799;0.244358;0.265425;0.135742;-0.452393;-0.653076;0.638743;0.460539;-0.351520;-0.506306
29132;0.406964;8.996447;5.126435;-0.329246;0.415303;0.314015;0.136230;-0.439697;-0.660156;0.642468;0.459539;-0.349262;-0.504058
29133;-0.096039;9.631373;5.103714;-0.437234;0.379420;0.276428;0.139404;-0.443604;-0.659180;0.646106;0.457765;-0.346754;-0.502752
29134;-0.084653;9.236517;4.754490;-0.356442;0.186286;0.248077;0.131836;-0.442627;-0.666260;0.648910;0.455795;-0.345388;-0.501871
29135;0.066327;8.735056;4.380454;0.028081;0.090579;0.212273;0.122803;-0.442383;-0.662842;0.649668;0.455544;-0.346109;-0.500620
29136;0.188001;8.466751;3.897747;0.274178;0.055800;0.203738;0.130859;-0.440674;-0.663330;0.649351;0.456537;-0.347989;-0.498820
29137;0.384978;8.204483;3.448119;0.403191;0.024246;0.231088;0.137207;-0.446777;-0.652588;0.648538;0.457945;-0.350720;-0.496670
29138;0.542253;8.285406;3.145418;0.525179;0.047802;0.277391;0.134766;-0.452637;-0.647461;0.647778;0.460099;-0.353808;-0.493470
29139;0.538848;8.532450;2.943472;0.499216;0.153830;0.323064;0.129395;-0.468506;-0.646240;0.647622;0.462417;-0.356365;-0.489653
29140;0.309512;8.424734;2.682704;0.274146;0.255067;0.373790;0.128174;-0.467529;-0.651855;0.648819;0.463792;-0.357647;-0.485820
29141;0.040781;8.081692;2.458056;0.120100;0.282526;0.402537;0.136719;-0.469482;-0.645020;0.650580;0.464208;-0.358436;-0.482473
29142;-0.093460;7.684647;2.268301;0.073092;0.247872;0.394425;0.129395;-0.464355;-0.654785;0.652556;0.464324;-0.359063;-0.479216
29143;-0.233585;7.412864;2.058933;0.130427;0.273209;0.341703;0.131348;-0.476318;-0.647461;0.653854;0.464825;-0.359811;-0.476392
29144;-0.458611;7.274321;1.941631;0.230978;0.333923;0.261878;0.132568;-0.476807;-0.646484;0.654835;0.466484;-0.360146;-0.473158
29145;-0.742190;7.143769;1.825215;0.292144;0.366717;0.171154;0.129639;-0.480469;-0.640137;0.655263;0.468841;-0.360223;-0.470168
29146;-0.971020;6.997501;1.500103;0.353225;0.344313;0.085738;0.130859;-0.499268;-0.638428;0.655093;0.471749;-0.360264;-0.467456
29147;-1.346429;7.148083;1.543499;0.479502;0.319776;0.006061;0.138428;-0.496582;-0.635254;0.654106;0.475539;-0.360555;-0.464767
29148;-1.720866;7.723112;1.542516;0.646328;0.218779;-0.056405;0.133545;-0.490723;-0.625000;0.651826;0.479959;-0.361849;-0.462415
29149;-1.666596;8.640642;1.841778;0.604989;-0.090664;-0.049938;0.138672;-0.500732;-0.626953;0.648763;0.482940;-0.364671;-0.461401
29150;-1.121723;9.259960;2.198335;0.135414;-0.480298;-0.022598;0.133789;-0.513916;-0.619385;0.646417;0.481714;-0.367984;-0.463340
29151;-0.241784;9.067986;2.694421;-0.517142;-0.631500;-0.015826;0.130859;-0.501221;-0.625732;0.646470;0.476516;-0.369402;-0.467495
29152;0.553009;8.178342;3.034268;-0.858584;-0.520151;0.020697;0.124268;-0.494629;-0.638672;0.648277;0.469728;-0.369057;-0.472112
29153;0.654022;8.391255;3.485481;-0.563435;-0.256773;0.100280;0.119629;-0.486816;-0.639404;0.649950;0.465257;-0.368803;-0.474432
29154;0.596855;9.845649;3.556958;0.372212;-0.026404;0.101639;0.113770;-0.495117;-0.636230;0.648767;0.466801;-0.370934;-0.472870
29155;-0.016310;10.852235;3.720407;0.733707;0.063036;0.077633;0.117188;-0.503662;-0.633789;0.646359;0.470740;-0.373885;-0.469929
29156;-0.289968;12.679934;4.239940;0.470476;-0.154204;0.095450;0.116455;-0.499756;-0.633545;0.644313;0.472296;-0.377083;-0.468621
29157;0.540851;14.466393;4.347577;0.597377;-0.475878;0.176800;0.109375;-0.505859;-0.618408;0.640959;0.472932;-0.382891;-0.467870
29158;2.161589;14.846125;3.673375;0.740459;-0.509770;0.240125;0.098633;-0.525635;-0.617432;0.637330;0.474106;-0.389505;-0.466176
29159;3.177339;13.376853;2.444642;0.533090;-0.148566;0.231103;0.089111;-0.528564;-0.613770;0.635605;0.475581;-0.393368;-0.463778
29160;2.195959;11.356203;2.414838;0.248123;0.320954;0.083437;0.101318;-0.525879;-0.616211;0.635921;0.477816;-0.393081;-0.461285
29161;0.380473;9.843042;2.237860;0.489701;0.339241;-0.075468;0.100586;-0.528320;-0.616211;0.634657;0.481839;-0.393053;-0.458858
29162;-0.683253;9.176885;2.430919;0.756752;-0.080603;-0.168545;0.105957;-0.532471;-0.605469;0.630472;0.485896;-0.395961;-0.457849
29163;-0.635476;9.644749;2.723383;0.467794;-0.645354;-0.234440;0.101318;-0.550537;-0.597168;0.625381;0.486513;-0.400393;-0.460315
29164;-0.119407;10.380217;2.768728;-0.102443;-0.974078;-0.251888;0.086670;-0.545898;-0.604492;0.621540;0.483035;-0.404135;-0.465875
29165;0.318788;10.379736;3.011159;-1.008365;-1.063078;-0.312926;0.083740;-0.528809;-0.612549;0.620625;0.474602;-0.404615;-0.475252
29166;1.040315;10.167634;3.582160;-1.841670;-1.264449;-0.391660;0.067139;-0.510498;-0.632568;0.621888;0.461220;-0.402389;-0.488482
29167;2.237321;10.219937;4.370903;-1.988800;-1.311508;-0.411062;0.053223;-0.486816;-0.647217;0.623186;0.446746;-0.399612;-0.502362
29168;2.934274;9.553489;4.401702;-1.557885;-0.952795;-0.381139;0.045898;-0.482178;-0.666992;0.624028;0.435796;-0.396724;-0.513109
29169;2.711110;8.841638;4.380046;-1.054013;-0.655948;-0.359868;0.047607;-0.469482;-0.666016;0.623980;0.428572;-0.394478;-0.520925
29170;2.332021;8.309141;4.168319;-0.552830;-0.546281;-0.342115;0.041992;-0.454102;-0.668701;0.622708;0.424453;-0.393743;-0.526346
29171;2.016051;8.089959;4.043957;-0.122000;-0.396028;-0.354373;0.042480;-0.458008;-0.675293;0.620299;0.423227;-0.394077;-0.529917
29172;1.457302;8.078296;3.677995;0.157200;-0.197954;-0.395550;0.040527;-0.448730;-0.674072;0.617332;0.424419;-0.394497;-0.532110
29173;0.858190;8.201105;3.454199;0.247115;-0.109559;-0.418659;0.033447;-0.463867;-0.674316;0.614172;0.426492;-0.394804;-0.533879
29174;0.547326;8.349916;3.118099;0.158833;-0.137556;-0.413873;0.049316;-0.463135;-0.668945;0.611225;0.427980;-0.394883;-0.536008
29175;0.442189;8.161021;2.737630;-0.038389;-0.207661;-0.387211;0.040527;-0.461426;-0.668457;0.608992;0.428116;-0.394452;-0.538752
29176;0.470398;7.750600;2.456807;-0.366296;-0.211611;-0.357579;0.048584;-0.458740;-0.671143;0.607986;0.426448;-0.392692;-0.542483
29177;0.628128;7.541702;2.390737;-0.482496;-0.256664;-0.306170;0.039551;-0.444824;-0.675293;0.607520;0.423832;-0.390781;-0.546421
29178;0.964367;7.135177;2.351423;-0.500367;-0.320723;-0.226557;0.040283;-0.449463;-0.685303;0.607173;0.420515;-0.389427;-0.550322
29179;1.398407;6.705491;2.373788;-0.592071;-0.305636;-0.155353;0.038818;-0.437988;-0.696045;0.607498;0.416557;-0.387826;-0.554092
29180;1.585347;6.476712;2.435779;-0.628677;-0.229915;-0.072548;0.041748;-0.437256;-0.691895;0.608505;0.412434;-0.385984;-0.557348
29181;1.535633;6.547662;2.355548;-0.381070;-0.089570;-0.037764;0.031250;-0.431641;-0.691895;0.609397;0.410188;-0.384612;-0.558977
29182;1.664898;6.792745;2.502472;-0.084665;-0.108152;0.046691;0.036621;-0.433594;-0.693604;0.609559;0.409077;-0.385020;-0.559334
29183;1.990777;7.335601;2.847255;0.058734;-0.057919;0.121216;0.034424;-0.425049;-0.701660;0.609789;0.408705;-0.386074;-0.558628
29184;2.046245;7.666127;2.870757;0.064758;0.106791;0.157477;0.033203;-0.436035;-0.701172;0.610618;0.408944;-0.386492;-0.557257
29185;1.697940;8.061590;3.213272;-0.021185;0.250366;0.162228;0.036133;-0.431396;-0.689209;0.612234;0.409417;-0.385788;-0.555622
29186;1.392940;8.540702;3.428646;-0.096163;0.251457;0.184049;0.034668;-0.423584;-0.692383;0.614295;0.409495;-0.384746;-0.554008
29187;1.412454;8.731967;3.388153;-0.054750;0.180683;0.178707;0.035400;-0.431396;-0.700928;0.615913;0.409437;-0.384264;-0.552588
29188;1.739713;9.541352;3.417959;0.112395;0.210912;0.156510;0.032715;-0.423828;-0.691162;0.616912;0.410423;-0.384347;-0.550681
29189;1.644561;10.813939;3.394266;0.595447;0.358004;0.150357;0.034912;-0.427979;-0.685303;0.616710;0.414594;-0.385842;-0.546724
29190;1.182521;11.574249;2.837469;0.680045;0.409183;0.107289;0.047119;-0.447510;-0.682129;0.616163;0.419556;-0.387291;-0.542515
29191;1.237215;10.760701;2.657571;0.071861;0.372371;0.040914;0.045898;-0.447998;-0.687500;0.617366;0.421462;-0.385912;-0.540649
29192;2.563855;9.891326;4.660687;-0.631532;0.321131;-0.012282;0.046387;-0.447021;-0.697510;0.620551;0.419641;-0.381473;-0.541568
29193;3.237436;11.691055;5.425522;0.253329;0.602111;0.118866;0.062500;-0.446777;-0.686035;0.622062;0.423213;-0.380049;-0.538044
29194;0.942456;12.963333;4.421101;1.638731;1.178464;0.139190;0.062988;-0.467529;-0.670654;0.620638;0.436476;-0.381788;-0.527765
29195;-1.165398;14.596809;4.060895;1.423771;0.906376;0.073288;0.075195;-0.476562;-0.666748;0.618604;0.447515;-0.383695;-0.519459
29196;-1.934442;12.806676;3.450700;-0.034516;0.952512;-0.129720;0.082764;-0.480469;-0.673096;0.621187;0.451796;-0.378255;-0.516652
29197;-1.289129;9.669540;3.652193;-0.925074;0.832550;-0.250427;0.103271;-0.471680;-0.663574;0.626108;0.451264;-0.369155;-0.517759
29198;-0.607905;7.682386;4.302874;-0.272814;0.626170;-0.247535;0.113281;-0.465332;-0.675049;0.628048;0.453283;-0.363838;-0.517408
29199;-0.041783;6.855894;4.313735;0.472815;0.679735;-0.149374;0.116455;-0.473633;-0.654785;0.627695;0.459081;-0.361838;-0.514117
29200;0.175071;6.835290;4.350081;0.393761;0.766699;0.070077;0.122314;-0.473877;-0.657715;0.628841;0.464196;-0.359838;-0.509507
29201;0.419203;7.523864;4.884489;-0.098014;0.761004;0.374399;0.134766;-0.479492;-0.661865;0.633094;0.465740;-0.356965;-0.504832
29202;0.472853;8.419793;5.203340;-0.426553;0.838698;0.564514;0.133301;-0.472168;-0.659668;0.639638;0.465283;-0.353002;-0.499765
29203;0.094622;9.561090;5.475240;-0.519090;1.038893;0.532153;0.142090;-0.467041;-0.660400;0.646912;0.465212;-0.347435;-0.494340
29204;-0.566931;10.180746;5.412810;-0.386734;0.974036;0.493342;0.155273;-0.474121;-0.669678;0.653276;0.465655;-0.342564;-0.488923
29205;-0.635030;9.666671;4.875162;-0.247452;0.698395;0.451443;0.152832;-0.463135;-0.659180;0.658099;0.465814;-0.339578;-0.484365
29206;-0.323425;8.934714;4.523118;0.028957;0.564079;0.378167;0.161865;-0.462891;-0.664795;0.661147;0.467144;-0.338135;-0.479923
29207;-0.262676;8.547639;4.181000;0.434219;0.574872;0.327340;0.161865;-0.466797;-0.660645;0.662434;0.470866;-0.338032;-0.474553
29208;-0.288880;8.501446;3.804587;0.689453;0.542819;0.306836;0.161377;-0.477295;-0.655762;0.662489;0.475898;-0.339029;-0.468709
29209;-0.390229;8.763813;3.540911;0.808946;0.585251;0.307931;0.176758;-0.496582;-0.641846;0.662120;0.481711;-0.340261;-0.462358
29210;-0.560597;8.926356;3.292470;0.686973;0.600392;0.334231;0.166992;-0.500000;-0.626465;0.662419;0.486835;-0.340967;-0.455998
29211;-0.393552;8.720463;3.061450;0.408310;0.519316;0.362596;0.175293;-0.511230;-0.638672;0.663635;0.489999;-0.341193;-0.450640
29212;-0.172486;8.444050;2.763673;0.295588;0.505961;0.365502;0.174561;-0.508789;-0.627197;0.665243;0.492442;-0.341084;-0.445662
29213;-0.269426;8.085442;2.389900;0.322348;0.601796;0.327266;0.182129;-0.520264;-0.622070;0.666859;0.495488;-0.340359;-0.440394
29214;-0.556210;7.858071;2.117968;0.409197;0.638035;0.282571;0.177490;-0.528564;-0.626465;0.668046;0.499265;-0.339540;-0.434926
29215;-0.797407;7.724532;2.041338;0.484584;0.596414;0.226064;0.184814;-0.527100;-0.609863;0.668492;0.503419;-0.339036;-0.429817
29216;-0.923412;7.547719;1.965325;0.579240;0.570502;0.164891;0.194824;-0.525879;-0.599609;0.668272;0.508181;-0.338693;-0.424796
29217;-1.014656;7.521058;1.994019;0.715985;0.585874;0.120849;0.193115;-0.547363;-0.590088;0.667364;0.513871;-0.338501;-0.419499
29218;-1.130698;7.505109;1.995012;0.862025;0.612548;0.095683;0.198486;-0.549561;-0.584961;0.665733;0.520493;-0.338583;-0.413821
29219;-1.294008;7.556728;2.007650;0.874640;0.607371;0.078411;0.200439;-0.567871;-0.575928;0.663914;0.527169;-0.338632;-0.408215
29220;-1.426292;7.729161;2.011209;0.815744;0.533264;0.061601;0.212891;-0.574707;-0.562500;0.662019;0.533269;-0.338817;-0.403183
29221;-1.230009;7.828821;2.370191;0.646003;0.458246;0.052613;0.214111;-0.578613;-0.558594;0.660644;0.538198;-0.338742;-0.398932
29222;-0.984026;7.907776;2.614079;0.346077;0.420958;0.117026;0.217285;-0.578369;-0.554932;0.660681;0.541142;-0.338166;-0.395361
29223;-0.553605;8.299162;2.650017;0.270095;0.396923;0.181878;0.220459;-0.585449;-0.558350;0.661194;0.543395;-0.337750;-0.391752
29224;-0.369456;8.954323;2.528340;0.414073;0.517715;0.197949;0.223877;-0.585938;-0.546631;0.661419;0.546769;-0.337212;-0.387114
29225;-0.653936;9.317127;2.300593;0.609289;0.762173;0.175631;0.234375;-0.601074;-0.539307;0.661351;0.552052;-0.335819;-0.380892
29226;-1.154535;10.135496;2.538699;0.702469;0.773480;0.165004;0.235596;-0.608398;-0.528320;0.660814;0.557880;-0.334578;-0.374369
29227;-1.095556;11.762849;2.726057;0.921920;0.568287;0.245627;0.237793;-0.611816;-0.514648;0.658871;0.564002;-0.335511;-0.367727
29228;-0.187684;11.250957;1.808521;0.936056;0.399840;0.319189;0.232910;-0.623779;-0.500488;0.656563;0.569436;-0.337719;-0.361403
29229;0.747614;12.224334;2.618855;0.805515;0.318310;0.367503;0.237793;-0.630371;-0.490723;0.654738;0.573731;-0.340202;-0.355547
29230;2.703140;12.335037;3.033739;0.875447;0.007597;0.495960;0.236816;-0.639404;-0.489014;0.652046;0.577095;-0.345153;-0.350238
29231;5.295715;11.329194;3.175736;0.211338;0.014882;0.563324;0.225342;-0.643066;-0.482910;0.652733;0.576649;-0.348425;-0.346432
29232;5.631762;11.773949;4.588106;-0.317319;0.790015;0.635254;0.219971;-0.652588;-0.494629;0.658388;0.575321;-0.346292;-0.340018
29233;4.115827;11.321700;4.625025;-0.616210;1.257510;0.712507;0.219727;-0.636719;-0.483154;0.666956;0.573363;-0.341101;-0.331776
29234;3.083949;11.917814;5.184791;-1.097471;1.275402;0.811052;0.231934;-0.638672;-0.493896;0.678024;0.568389;-0.334859;-0.324170
29235;2.983186;12.587346;5.207392;-1.487828;1.378252;0.858314;0.233887;-0.628906;-0.500244;0.691170;0.561202;-0.327083;-0.316784
29236;3.025494;11.551425;4.474189;-2.089349;1.647378;0.765678;0.240723;-0.606689;-0.521973;0.707322;0.551270;-0.315593;-0.310159
29237;2.466627;9.573569;4.068377;-2.374112;2.025377;0.696202;0.250244;-0.596436;-0.521973;0.725155;0.540465;-0.300617;-0.302784
29238;1.928527;7.966416;3.906971;-1.882630;2.182588;0.726947;0.268555;-0.578369;-0.543701;0.740770;0.532604;-0.285878;-0.293030
29239;1.553111;7.774858;3.926126;-0.618979;2.149364;0.810628;0.271484;-0.583984;-0.540039;0.750531;0.531984;-0.274631;-0.279775
29240;1.200035;8.625445;3.737570;0.554203;2.194769;0.813075;0.286377;-0.597168;-0.518799;0.754896;0.538572;-0.265778;-0.263504
29241;1.057989;9.620975;3.357528;0.761461;2.189985;0.774645;0.296875;-0.591797;-0.505371;0.757926;0.546334;-0.257113;-0.246903
29242;1.315039;9.789553;2.933429;0.104149;2.191353;0.759306;0.306396;-0.599121;-0.494141;0.763621;0.549744;-0.246893;-0.231749
29243;1.558150;9.621768;2.861908;-0.348941;2.334475;0.755480;0.322510;-0.595703;-0.480225;0.771370;0.550331;-0.234779;-0.216802
29244;1.532360;9.392858;2.936928;-0.293725;2.427593;0.764953;0.337402;-0.607422;-0.471436;0.778720;0.551197;-0.222067;-0.201153
29245;1.855775;9.139778;3.013647;-0.218088;2.447083;0.824059;0.335938;-0.618164;-0.460205;0.785493;0.552231;-0.209522;-0.184776
29246;2.294995;8.941871;2.871661;-0.120867;2.613392;0.898025;0.345947;-0.623047;-0.440430;0.791823;0.553724;-0.196358;-0.166883
29247;2.342853;8.761417;2.726296;-0.043810;2.861755;0.965345;0.358887;-0.609619;-0.430176;0.797828;0.555650;-0.181849;-0.147152
29248;1.872033;8.577989;2.248700;-0.077785;3.139090;1.022566;0.374023;-0.622070;-0.407715;0.803937;0.557184;-0.165553;-0.125793
29249;1.380892;8.637326;2.214057;0.000895;3.252937;1.078838;0.393311;-0.635498;-0.394531;0.809249;0.558878;-0.148679;-0.103276
29250;1.427399;8.660724;2.211881;0.194034;3.235978;1.131667;0.387207;-0.638184;-0.374023;0.813022;0.561336;-0.132174;-0.080172
29251;1.504118;8.714435;2.077412;0.216280;3.333098;1.145737;0.397461;-0.658447;-0.345703;0.816134;0.563461;-0.115098;-0.056471
29252;1.228433;8.682760;1.744571;0.098806;3.494893;1.128778;0.410400;-0.661865;-0.322754;0.819186;0.564411;-0.096662;-0.032107
29253;1.165156;8.798282;1.593816;0.079849;3.399544;1.169641;0.404541;-0.668457;-0.293945;0.821507;0.564654;-0.078919;-0.007955
29254;1.115165;9.391804;1.552542;0.624041;3.260947;1.178017;0.414062;-0.677002;-0.255127;0.820444;0.568108;-0.062191;0.016015
29255;0.697947;10.214743;2.105389;0.827384;3.215982;1.069142;0.416992;-0.690674;-0.230957;0.817656;0.572607;-0.045028;0.039143
29256;0.287107;10.216268;1.960219;0.110193;3.106407;0.980919;0.421875;-0.700928;-0.210938;0.817651;0.571789;-0.028436;0.060789
29257;0.196532;9.415265;1.984735;-0.638401;3.013747;0.952302;0.421631;-0.701904;-0.197998;0.820610;0.565499;-0.012682;0.081543
29258;0.195341;8.543429;2.246882;-0.625652;2.865937;0.957590;0.416504;-0.709229;-0.192139;0.822926;0.558998;0.002059;0.101539
29259;0.416285;7.949768;2.349172;-0.139969;2.536130;1.010258;0.411621;-0.717041;-0.166748;0.822495;0.555717;0.014600;0.120280
29260;0.800650;7.771464;2.488896;0.311255;2.293062;1.012961;0.407227;-0.722412;-0.145264;0.819528;0.555595;0.025994;0.137884
29261;1.087208;7.926347;2.544880;0.577679;2.277266;0.948739;0.397217;-0.728760;-0.126465;0.815024;0.557069;0.037915;0.154829
29262;1.294059;7.764410;2.344166;0.609436;2.265233;0.887583;0.389893;-0.739502;-0.107178;0.810125;0.558465;0.049983;0.171220
29263;1.575236;7.503065;2.244166;0.537202;2.296136;0.819856;0.391602;-0.734619;-0.087402;0.805311;0.559027;0.062397;0.187268
29264;1.786848;8.313613;2.962636;0.579105;2.384918;0.778362;0.381104;-0.752686;-0.063232;0.800009;0.559456;0.075727;0.203125
29265;1.780851;10.590023;3.869533;0.842848;2.461335;0.771211;0.374023;-0.758301;-0.042480;0.792999;0.561257;0.089957;0.219205
29266;1.590352;12.934753;2.833307;1.318896;2.458146;0.789087;0.364258;-0.752197;-0.001953;0.783360;0.565856;0.104842;0.234865
29267;1.002590;12.769713;1.777680;0.969403;2.740276;0.661591;0.346436;-0.767090;0.029785;0.774813;0.567289;0.121565;0.251137
29268;0.003821;10.642038;2.210723;-0.632513;3.179522;0.467082;0.349609;-0.758057;0.038086;0.773180;0.556889;0.138529;0.269957
29269;-1.318802;9.322926;3.401667;-1.196236;3.405146;0.377370;0.354004;-0.775635;0.038818;0.773555;0.541789;0.156081;0.289338
29270;-2.367011;8.517041;3.930013;-0.819935;3.266331;0.443431;0.335449;-0.772461;0.047119;0.771664;0.529014;0.173206;0.307699
29271;-2.515395;8.270667;3.583348;-0.246944;2.791874;0.669453;0.329102;-0.773438;0.056396;0.766771;0.521107;0.187567;0.324544
29272;-1.857391;8.617516;3.011817;0.334389;2.512488;0.861151;0.310059;-0.783691;0.075439;0.758937;0.517656;0.200789;0.340192
29273;-1.409778;9.515007;2.849734;0.580996;2.522987;0.925403;0.297607;-0.790283;0.092773;0.749375;0.515590;0.214358;0.355885
29274;-1.690378;10.548165;2.806010;0.349324;2.665072;0.872838;0.277832;-0.787842;0.113281;0.740372;0.511235;0.228209;0.372034
29275;-1.947207;10.888995;2.581443;0.035639;2.616525;0.841781;0.260254;-0.796143;0.125000;0.732415;0.504830;0.240851;0.388208
29276;-1.725590;10.719235;2.541184;0.053328;2.464303;0.864255;0.249268;-0.798340;0.140137;0.724237;0.498796;0.252373;0.403720
29277;-1.348728;10.321398;2.500572;0.123097;2.412895;0.890484;0.230469;-0.803223;0.144775;0.715455;0.493250;0.263702;0.418675
29278;-1.227033;9.941648;2.581658;0.084412;2.475804;0.891566;0.216797;-0.806641;0.153809;0.706440;0.486907;0.275019;0.433854
29279;-1.374186;9.627362;2.564503;0.076968;2.534907;0.875553;0.194336;-0.804932;0.174072;0.697102;0.480015;0.286601;0.448881
29280;-1.679032;9.281338;2.327178;0.131977;2.565569;0.845372;0.174072;-0.812744;0.182617;0.687004;0.473231;0.298715;0.463516
29281;-2.002119;9.051816;2.019808;0.176167;2.541067;0.821652;0.154541;-0.811035;0.191895;0.676538;0.466446;0.310738;0.477668
29282;-2.298697;8.806390;1.627823;0.168355;2.480787;0.814665;0.135742;-0.812500;0.194336;0.665950;0.459616;0.322271;0.491331
29283;-2.622951;8.451773;1.302205;0.111604;2.434850;0.795931;0.114746;-0.812744;0.210938;0.655562;0.452276;0.333141;0.504681
29284;-2.972968;8.216432;1.271284;0.040844;2.350559;0.785535;0.099609;-0.820557;0.208008;0.645235;0.444869;0.343307;0.517594
29285;-3.232947;8.145986;1.235481;0.018148;2.148735;0.785891;0.077637;-0.813477;0.208496;0.635513;0.437836;0.352003;0.529638
29286;-3.218695;8.488161;1.463314;0.078132;1.858411;0.800953;0.067383;-0.821289;0.218262;0.626102;0.432295;0.359234;0.540432
29287;-3.119348;8.952527;1.636698;0.047785;1.605361;0.803582;0.050781;-0.822510;0.220703;0.617447;0.427708;0.365030;0.550072
29288;-2.946938;9.047990;1.720867;-0.180968;1.442524;0.765941;0.031006;-0.816162;0.213379;0.610140;0.422483;0.368998;0.559534
29289;-2.886552;8.865991;1.723153;-0.385816;1.339672;0.726804;0.018799;-0.814941;0.202148;0.603907;0.416429;0.371475;0.569112
29290;-2.914384;8.800911;1.872737;-0.315022;1.193877;0.699073;-0.001465;-0.819092;0.205078;0.598044;0.411153;0.373511;0.577742
29291;-2.785094;8.902290;2.250692;-0.206920;0.985237;0.680901;-0.003662;-0.823242;0.201904;0.592211;0.407465;0.375149;0.585254
29292;-2.391866;8.721750;2.401448;-0.308657;0.796727;0.661694;-0.025146;-0.824951;0.196533;0.587634;0.404050;0.375410;0.592028
29293;-1.953955;8.370590;2.496603;-0.398096;0.727155;0.641049;-0.038574;-0.832764;0.193115;0.583378;0.400440;0.374881;0.598984
29294;-1.675850;8.057166;2.480846;-0.270100;0.705471;0.643321;-0.047119;-0.819092;0.199951;0.578652;0.397563;0.374865;0.605460
29295;-1.597000;7.955179;2.656729;-0.080748;0.689935;0.642752;-0.050781;-0.825195;0.184814;0.573169;0.395946;0.375990;0.611012
29296;-1.691506;8.040003;2.676118;0.056140;0.690671;0.633721;-0.067627;-0.819824;0.189209;0.567679;0.394559;0.377544;0.616056
29297;-1.730258;8.462464;2.546872;0.231025;0.624532;0.622880;-0.073486;-0.822021;0.197021;0.561579;0.394421;0.379781;0.620344
29298;-1.737351;9.551629;2.791606;0.536246;0.530609;0.592509;-0.081543;-0.818359;0.200195;0.554975;0.396155;0.383338;0.622989
29299;-1.563097;10.937120;3.228824;0.768530;0.417836;0.541253;-0.089600;-0.816162;0.202637;0.548282;0.399268;0.387656;0.624256
29300;-1.006479;13.458088;5.291887;0.722695;0.106232;0.541874;-0.104004;-0.809326;0.216064;0.542828;0.403586;0.390136;0.624700
29301;1.155999;17.612357;5.622767;1.334589;-0.531120;0.780996;-0.108643;-0.806152;0.232910;0.535791;0.414851;0.392142;0.622134
29302;3.613660;14.532663;3.856261;0.774510;-0.134641;0.638470;-0.113281;-0.793213;0.249756;0.530244;0.420967;0.393416;0.621974
29303;2.885397;12.874163;4.254604;-0.797245;1.244031;0.359874;-0.124268;-0.800049;0.233154;0.527012;0.412245;0.393736;0.630305
29304;0.257633;11.260901;5.327027;-1.224433;1.559320;0.200682;-0.132324;-0.807861;0.214600;0.524976;0.399260;0.393555;0.640395
29305;-0.862072;8.686729;4.354568;-0.858262;1.084355;0.099491;-0.141846;-0.813477;0.198975;0.523736;0.390001;0.393513;0.647107
29306;-1.093010;6.708957;3.238134;-0.163471;0.847684;-0.007932;-0.144043;-0.809326;0.197754;0.521433;0.384608;0.396441;0.650399
29307;-1.235433;6.482743;3.148847;0.544031;0.482247;-0.084245;-0.150391;-0.811279;0.207031;0.518397;0.384104;0.401925;0.649757
29308;-0.857995;8.292094;4.050960;0.918068;-0.229491;0.000769;-0.149170;-0.798096;0.216309;0.515871;0.389393;0.406091;0.646019
29309;0.136859;9.614185;4.634688;0.375278;-0.599127;0.164058;-0.145020;-0.804443;0.222168;0.515434;0.394827;0.405174;0.643640
29310;1.240012;9.096929;4.549850;-0.839069;-0.395274;0.149137;-0.145752;-0.808105;0.217773;0.518607;0.393796;0.398603;0.645822
29311;1.945174;9.411244;5.067508;-1.147539;-0.167066;0.135257;-0.147705;-0.806396;0.199463;0.521992;0.390263;0.391489;0.649581
29312;2.199456;9.361906;4.455626;-0.484687;-0.040595;0.207802;-0.149170;-0.811035;0.186768;0.522372;0.389095;0.388194;0.651949
29313;1.922157;9.099403;3.789270;-0.066063;0.187585;0.178843;-0.149170;-0.801270;0.205811;0.520982;0.388231;0.388103;0.653629
29314;1.245328;9.229997;3.626817;0.013308;0.244712;0.124861;-0.152100;-0.806396;0.199951;0.519157;0.387779;0.389348;0.654608
29315;0.647205;9.241255;3.419232;0.190414;0.183538;0.047695;-0.160156;-0.803711;0.196777;0.517507;0.387971;0.391369;0.654596
29316;0.251623;9.026195;3.067167;0.344638;0.099420;-0.050153;-0.158691;-0.813232;0.204590;0.516014;0.388850;0.394031;0.653655
29317;0.258144;8.711631;2.747299;0.296467;-0.029502;-0.104261;-0.150146;-0.806152;0.200195;0.515488;0.390035;0.396080;0.652124
29318;0.573437;8.293771;2.518034;0.173816;-0.147135;-0.095652;-0.149902;-0.804443;0.202881;0.515998;0.391171;0.396792;0.650605
29319;0.817839;7.874566;2.244751;0.049061;-0.109507;-0.104283;-0.153076;-0.799561;0.209473;0.516767;0.391556;0.397016;0.649627
29320;0.812790;7.621722;2.219196;-0.130831;-0.005647;-0.099733;-0.145264;-0.806152;0.205566;0.517470;0.390793;0.396819;0.649647
29321;0.660858;7.425960;2.181471;-0.344456;0.047952;-0.074371;-0.147461;-0.808838;0.197998;0.518853;0.388791;0.395553;0.650516
29322;0.719391;7.160304;2.225573;-0.517080;0.011663;-0.031256;-0.154541;-0.807617;0.194092;0.520621;0.386307;0.392975;0.652143
29323;0.979648;6.946021;2.342568;-0.600175;-0.040883;0.020380;-0.143799;-0.797119;0.192627;0.522232;0.384015;0.389599;0.654231
29324;1.300699;6.693748;2.435981;-0.636055;-0.029751;0.066513;-0.148193;-0.805908;0.173828;0.523834;0.381845;0.386115;0.656283
29325;1.541090;6.576326;2.596691;-0.650420;0.015118;0.111233;-0.151367;-0.811523;0.166260;0.525171;0.379214;0.382334;0.658948
29326;1.649192;6.671133;2.662290;-0.488240;0.067583;0.158966;-0.161621;-0.811523;0.169434;0.525514;0.377161;0.379523;0.661473
29327;1.540656;7.003047;3.062060;-0.249646;0.120999;0.170286;-0.153076;-0.819336;0.160645;0.524470;0.376129;0.378409;0.663524
29328;1.307919;7.428907;3.042615;-0.060799;0.122597;0.162650;-0.156250;-0.808105;0.155029;0.523389;0.375708;0.378251;0.664705
29329;1.207216;8.517213;3.650787;0.204156;0.055308;0.138567;-0.153809;-0.802734;0.165771;0.521781;0.376698;0.379271;0.664828
29330;1.340751;9.642833;4.077695;0.345289;-0.069278;0.109090;-0.164062;-0.805176;0.161377;0.520286;0.379098;0.380797;0.663763
29331;1.773043;10.648380;4.261082;0.203305;-0.127206;0.088917;-0.164307;-0.808105;0.175293;0.519380;0.380901;0.381138;0.663244
29332;1.895946;11.198621;3.540965;0.121181;0.027844;0.002116;-0.161865;-0.811523;0.173584;0.518640;0.381439;0.382169;0.662920
29333;2.071274;11.462684;3.611833;0.179378;0.108584;-0.099086;-0.168213;-0.809570;0.174072;0.518187;0.381358;0.384107;0.662201
29334;2.239678;12.594837;5.274266;0.212977;0.145934;-0.159079;-0.164795;-0.812500;0.180908;0.517611;0.380991;0.386541;0.661446
29335;1.613383;14.800780;4.858955;0.979531;0.333785;-0.187348;-0.157227;-0.811035;0.196533;0.514167;0.382857;0.394156;0.658555
29336;-0.521104;16.369005;3.883790;1.839201;0.496209;-0.232469;-0.159424;-0.788574;0.213379;0.507766;0.387348;0.407319;0.652860
29337;-1.643443;15.404417;4.003201;0.900064;0.113937;-0.333746;-0.157959;-0.795898;0.223145;0.506015;0.389492;0.413941;0.648766
29338;0.168590;11.917672;5.279202;-0.972742;-0.235124;-0.446630;-0.148926;-0.797363;0.212646;0.512156;0.385099;0.409229;0.649559
29339;1.886109;8.576443;6.230526;-1.707749;0.024498;-0.450300;-0.142090;-0.814697;0.190430;0.519743;0.376149;0.401643;0.653500
29340;2.288053;6.052484;6.450832;-1.722130;0.469545;-0.347974;-0.130859;-0.824463;0.168457;0.525310;0.364928;0.395466;0.659154
29341;1.972389;4.481451;6.305537;-1.292489;0.684193;-0.054490;-0.138672;-0.807129;0.145996;0.527376;0.355334;0.391664;0.664990
29342;1.635049;4.577709;6.003851;-0.064301;0.621775;0.350106;-0.154297;-0.814453;0.153809;0.523435;0.352810;0.393127;0.668575
29343;1.175541;6.346503;5.873866;1.573634;0.800592;0.533856;-0.156494;-0.809570;0.169678;0.512635;0.357153;0.404057;0.668120
29344;0.370223;8.718963;5.890644;1.957766;1.061500;0.480262;-0.164062;-0.800781;0.189697;0.500246;0.361301;0.418198;0.666578
29345;-0.183220;10.137378;5.155873;1.036404;0.981109;0.412490;-0.183350;-0.792480;0.198730;0.491264;0.361658;0.426910;0.667541
29346;-0.030770;10.179565;4.591412;0.017035;0.903323;0.358806;-0.182373;-0.791992;0.199463;0.485548;0.358016;0.429721;0.671869
29347;-0.065474;9.192779;3.991457;-0.064651;1.021078;0.286479;-0.191650;-0.794922;0.196777;0.480280;0.353155;0.432782;0.676249
29348;-0.361372;8.460996;3.745410;0.359133;0.971893;0.276097;-0.195557;-0.786865;0.196777;0.473913;0.350197;0.438037;0.678891
29349;-0.503396;8.159764;3.531173;0.639207;0.785606;0.306848;-0.206543;-0.783691;0.197510;0.467275;0.349483;0.443993;0.679990
29350;-0.387375;8.147024;3.182790;0.708787;0.650998;0.303097;-0.205566;-0.783203;0.206787;0.460838;0.349656;0.449711;0.680536
29351;-0.318641;8.219108;2.873064;0.587341;0.621839;0.295428;-0.212891;-0.777832;0.210938;0.455130;0.349514;0.454635;0.681178
29352;-0.291878;8.183496;2.540540;0.393966;0.597270;0.292777;-0.220703;-0.779541;0.215332;0.450015;0.348734;0.458343;0.682489
29353;-0.257748;7.917956;2.285931;0.205568;0.584423;0.291468;-0.226074;-0.775146;0.218018;0.445444;0.347298;0.460934;0.684473
29354;-0.356672;7.710855;2.183763;0.094976;0.579121;0.288350;-0.229980;-0.774658;0.211670;0.441192;0.345515;0.462911;0.686792
29355;-0.513373;7.413554;1.983392;0.052845;0.553100;0.262195;-0.239502;-0.779785;0.214111;0.437425;0.343508;0.464516;0.689120
29356;-0.697003;7.134621;1.875724;-0.011321;0.546273;0.216015;-0.244141;-0.769043;0.219482;0.434001;0.341146;0.465904;0.691517
29357;-0.924896;6.911136;1.662708;-0.002587;0.522309;0.152334;-0.242432;-0.771973;0.216309;0.430845;0.338906;0.467580;0.693458
29358;-1.188815;6.753033;1.606815;0.093154;0.482420;0.086618;-0.248535;-0.768799;0.210693;0.428203;0.336947;0.469783;0.694559
29359;-1.486634;6.908602;1.609970;0.237958;0.412552;0.037643;-0.247559;-0.763184;0.203857;0.425587;0.335603;0.472651;0.694872
29360;-1.682957;7.411611;1.562053;0.436917;0.261517;0.023126;-0.255615;-0.760254;0.213379;0.423187;0.335635;0.476060;0.693995
29361;-1.726886;8.292790;1.967026;0.440099;0.069603;0.012566;-0.260986;-0.762207;0.224365;0.421287;0.336819;0.478948;0.692589
29362;-1.536956;8.909441;2.573303;0.050724;-0.155049;-0.011367;-0.261475;-0.760254;0.221191;0.421350;0.337901;0.478952;0.692020
29363;-1.245986;8.909212;2.983227;-0.333929;-0.296920;-0.009601;-0.254883;-0.760254;0.217773;0.423032;0.338360;0.476177;0.692685
29364;-0.900120;9.348207;3.479606;-0.342397;-0.380236;0.050442;-0.252197;-0.762939;0.215088;0.424940;0.339534;0.472850;0.693221
29365;-0.163943;9.667529;3.854468;-0.299738;-0.460037;0.102741;-0.251953;-0.760010;0.219971;0.426843;0.341524;0.469309;0.693481
29366;0.499943;9.637592;3.855290;-0.380125;-0.313185;0.194138;-0.255371;-0.765869;0.206299;0.427769;0.342868;0.465676;0.694695
29367;0.283838;10.083270;3.434879;0.019416;0.109467;0.205831;-0.258057;-0.755127;0.206055;0.425923;0.343001;0.465646;0.695783
29368;-0.739274;11.401877;3.639742;0.735142;0.191036;0.173079;-0.259033;-0.763428;0.228027;0.421794;0.345112;0.470185;0.694200
29369;-0.969049;13.823913;4.436218;1.058217;-0.176593;0.165001;-0.260986;-0.754150;0.230469;0.418317;0.350632;0.475430;0.689952
29370;0.272773;15.895686;4.619534;1.063788;-0.589762;0.189658;-0.259277;-0.744629;0.240479;0.416310;0.358412;0.478994;0.684684
29371;1.932432;16.601939;4.421583;0.750489;-0.576088;0.180599;-0.259766;-0.740479;0.259766;0.415268;0.364895;0.480734;0.680661
29372;2.653477;13.530188;3.222520;-0.076185;-0.217181;0.091260;-0.260986;-0.739258;0.262939;0.415704;0.366237;0.479400;0.680615
29373;1.825918;9.467282;2.809845;-0.554337;0.023928;-0.029572;-0.266113;-0.748779;0.252197;0.417240;0.364117;0.476608;0.682770
29374;0.512944;7.646998;4.171370;-0.160240;-0.155702;-0.142730;-0.260986;-0.751953;0.255127;0.418844;0.363781;0.475719;0.682586
29375;0.043279;7.439751;4.631852;-0.075107;-0.585121;-0.310193;-0.246826;-0.753174;0.254639;0.422960;0.365614;0.474332;0.680030
29376;0.810323;8.377406;4.590542;0.011026;-1.061449;-0.333726;-0.250000;-0.750000;0.260986;0.429149;0.370392;0.471689;0.675389
29377;1.457108;9.101638;4.777131;-0.130035;-1.121747;-0.318740;-0.235596;-0.750977;0.267822;0.435325;0.374934;0.468116;0.671405
29378;2.041979;9.521464;4.651108;-0.636445;-0.928736;-0.368899;-0.222168;-0.754639;0.261963;0.442769;0.376455;0.462521;0.669561
29379;2.760844;10.360348;4.929014;-0.727047;-0.812499;-0.327823;-0.227051;-0.757568;0.252930;0.449990;0.377147;0.456601;0.668420
29380;2.814064;10.585432;4.310490;-0.567996;-0.449427;-0.293080;-0.220947;-0.750000;0.242432;0.454638;0.376341;0.452870;0.668267
29381;1.879747;10.251364;3.657209;-0.531422;-0.118245;-0.312662;-0.208984;-0.762695;0.239258;0.458005;0.373724;0.450611;0.668963
29382;0.948256;9.468225;3.408275;-0.574368;-0.061170;-0.312613;-0.207275;-0.766602;0.230225;0.461669;0.370726;0.448224;0.669716
29383;0.562330;8.436888;3.113716;-0.478169;-0.141661;-0.355936;-0.201660;-0.769531;0.221680;0.465500;0.368317;0.446178;0.669759
29384;0.301396;7.699801;2.834502;-0.310771;-0.133929;-0.420433;-0.194336;-0.775879;0.226318;0.469201;0.366241;0.445233;0.668944
29385;0.046238;7.254534;2.643176;-0.275949;-0.180048;-0.451374;-0.193848;-0.769531;0.223877;0.473126;0.364544;0.444476;0.667609
29386;0.019627;6.851896;2.340666;-0.353611;-0.306522;-0.432232;-0.186523;-0.773682;0.210205;0.477334;0.363258;0.442826;0.666409
29387;0.308369;6.514090;2.198334;-0.364953;-0.402219;-0.377444;-0.182373;-0.779541;0.223145;0.481798;0.362545;0.440382;0.665204
29388;0.711043;6.194289;2.188458;-0.416382;-0.447643;-0.305878;-0.177002;-0.786865;0.210938;0.485925;0.362271;0.437492;0.664257
29389;0.957924;6.045749;2.227519;-0.434884;-0.393544;-0.245471;-0.172119;-0.782227;0.203125;0.489724;0.361739;0.434371;0.663806
29390;1.055309;5.905815;2.360230;-0.443527;-0.293857;-0.189187;-0.161377;-0.778809;0.206055;0.492904;0.360818;0.431388;0.663898
29391;1.099899;5.939383;2.469006;-0.446776;-0.262857;-0.130224;-0.171387;-0.780029;0.204834;0.495785;0.360091;0.428381;0.664094
29392;1.194797;6.275118;2.724208;-0.261708;-0.241405;-0.051846;-0.168457;-0.788574;0.186035;0.497106;0.360162;0.426428;0.664326
29393;1.313051;6.960227;2.899696;0.007828;-0.214941;0.021138;-0.158936;-0.779541;0.199707;0.497494;0.361354;0.425549;0.663951
29394;1.412211;7.630043;3.209169;0.143548;-0.205872;0.115519;-0.171387;-0.781250;0.197021;0.497007;0.363612;0.425296;0.663245
29395;1.375111;8.275286;3.415580;-0.007653;-0.118051;0.168065;-0.168701;-0.783447;0.195801;0.496102;0.364769;0.424433;0.663839
29396;1.178986;8.898374;3.483319;-0.167796;-0.100956;0.176734;-0.169922;-0.784180;0.192627;0.495788;0.365248;0.422640;0.664954
29397;1.285716;9.789208;3.524381;-0.041878;-0.243678;0.182815;-0.176270;-0.776855;0.194092;0.495618;0.367065;0.420903;0.665182
29398;1.822638;10.929560;4.096639;0.154694;-0.339780;0.146444;-0.178711;-0.774170;0.189453;0.495219;0.370071;0.420040;0.664359
29399;2.336699;11.578095;3.694852;0.129121;-0.222934;0.070622;-0.171631;-0.782227;0.198486;0.494996;0.372027;0.419659;0.663672
29400;2.368800;11.838405;3.207796;0.009771;-0.043039;-0.029773;-0.171631;-0.780518;0.197510;0.495212;0.372235;0.419671;0.663387
29401;2.717469;11.166221;3.658113;-0.127402;0.028395;-0.089539;-0.175537;-0.777832;0.187988;0.495931;0.371269;0.419398;0.663564
29402;3.425972;9.989198;4.408881;-0.109035;0.178713;-0.146547;-0.167969;-0.773193;0.187744;0.496347;0.369287;0.419990;0.663985
29403;3.742421;11.591426;6.532296;0.333596;0.399133;-0.155609;-0.173096;-0.781494;0.199951;0.494783;0.367960;0.423943;0.663375
29404;0.996378;13.976481;4.250084;2.205974;1.065968;-0.105414;-0.177246;-0.767090;0.231201;0.484543;0.370726;0.440863;0.658346
29405;-2.301896;16.231988;4.035124;2.259327;0.878105;-0.190324;-0.174805;-0.762207;0.255127;0.475011;0.374281;0.457457;0.651929
29406;-3.359061;14.941304;3.715870;0.357939;0.467034;-0.295746;-0.177002;-0.766846;0.243164;0.473564;0.372071;0.462260;0.650857
29407;-1.451396;10.906962;4.403552;-1.648390;0.117692;-0.394982;-0.167969;-0.772705;0.222168;0.480235;0.363333;0.454969;0.656024
29408;0.118024;8.227752;5.730638;-2.038191;0.108725;-0.472639;-0.175049;-0.773926;0.202393;0.488488;0.352742;0.445615;0.662102
29409;0.861022;5.995730;5.969527;-1.494216;0.377028;-0.441682;-0.166260;-0.780029;0.175293;0.493578;0.342853;0.440291;0.667065
29410;0.881445;4.715767;5.953915;-0.996708;0.394049;-0.149149;-0.158691;-0.790527;0.168701;0.495644;0.335978;0.436825;0.671297
29411;0.976624;4.309145;6.065145;-0.630418;0.202347;0.211257;-0.160400;-0.786133;0.160156;0.495415;0.333046;0.433577;0.675023
29412;1.380083;5.118802;6.206550;-0.013575;0.196991;0.385952;-0.165527;-0.790771;0.155273;0.492514;0.333330;0.433275;0.677195
29413;1.217075;6.863135;5.952899;0.734030;0.469606;0.388933;-0.174561;-0.784424;0.171387;0.486547;0.335131;0.438257;0.677414
29414;0.390566;8.449985;5.175098;0.776135;0.610943;0.306001;-0.180420;-0.781250;0.174561;0.480309;0.335986;0.444296;0.677508
29415;-0.187402;9.190930;4.430179;0.437061;0.464662;0.335262;-0.185547;-0.781494;0.183105;0.475392;0.336386;0.447706;0.678533
29416;-0.084449;8.859512;3.835525;0.269036;0.341598;0.322202;-0.189697;-0.776367;0.181641;0.471464;0.336771;0.449710;0.679755
29417;-0.008937;8.525733;3.567154;0.365666;0.360961;0.308908;-0.193115;-0.780273;0.187988;0.467275;0.337364;0.452351;0.680601
29418;0.173493;8.447336;3.476983;0.448099;0.322722;0.318518;-0.207764;-0.766357;0.187744;0.462955;0.338536;0.455265;0.681028
29419;0.247753;8.461742;3.279567;0.422683;0.327136;0.308938;-0.208008;-0.773926;0.198975;0.458611;0.339477;0.458107;0.681593
29420;0.022813;8.382256;2.852766;0.354339;0.442298;0.294148;-0.210449;-0.772705;0.196289;0.454159;0.339485;0.461012;0.682610
29421;-0.423923;8.194375;2.583818;0.266531;0.471409;0.271432;-0.221924;-0.761475;0.198242;0.450008;0.338894;0.463552;0.683932
29422;-0.723571;7.983175;2.455184;0.185164;0.375921;0.246323;-0.217041;-0.755127;0.198242;0.446491;0.338406;0.465373;0.685241
29423;-0.804013;7.623195;2.339623;0.104822;0.267576;0.203817;-0.229004;-0.760986;0.201416;0.443957;0.338114;0.466409;0.686326
29424;-0.841238;7.411386;2.315800;0.097965;0.220287;0.156626;-0.239502;-0.758545;0.202148;0.441805;0.337844;0.467398;0.687175
29425;-1.120502;7.398693;2.225277;0.213230;0.216076;0.125110;-0.229492;-0.761963;0.201416;0.439433;0.337855;0.469153;0.687494
29426;-1.315388;7.384916;2.044625;0.324592;0.142782;0.096882;-0.230713;-0.750488;0.207275;0.437362;0.338643;0.471283;0.686970
29427;-1.400231;7.459064;1.961353;0.442780;0.022029;0.077877;-0.242188;-0.752686;0.206543;0.435507;0.340481;0.473717;0.685564
29428;-1.380927;7.797115;2.009248;0.457248;-0.098726;0.057688;-0.235596;-0.755127;0.215576;0.434095;0.342892;0.475878;0.683759
29429;-1.446394;8.434104;2.304678;0.405376;-0.172461;0.026061;-0.233398;-0.747070;0.219238;0.433396;0.345460;0.477525;0.681759
29430;-1.455335;8.905385;2.833462;0.203871;-0.320401;-0.004165;-0.237549;-0.750000;0.230713;0.434038;0.348017;0.477574;0.680013
29431;-1.237142;9.139506;3.428525;-0.150964;-0.524415;-0.034431;-0.245605;-0.748779;0.229004;0.436623;0.350315;0.474994;0.678985
29432;-0.396759;9.211979;3.721861;-0.388994;-0.644979;0.045708;-0.237061;-0.745605;0.222656;0.439799;0.352669;0.470427;0.678896
29433;0.318582;8.693347;3.614262;-0.479908;-0.541075;0.138543;-0.236328;-0.749268;0.217041;0.442383;0.354487;0.465395;0.679739
29434;0.442171;9.172199;3.632843;-0.173241;-0.276789;0.130578;-0.231445;-0.751221;0.210693;0.443098;0.355905;0.463071;0.680118
29435;0.130132;10.413986;4.119171;0.359879;-0.208359;0.139337;-0.231689;-0.753418;0.218506;0.441996;0.358960;0.463949;0.678630
29436;0.037128;11.440906;4.725956;0.453150;-0.309493;0.114296;-0.231934;-0.750000;0.220459;0.441146;0.362838;0.465049;0.676364
29437;0.692127;13.694537;6.094275;0.360743;-0.500029;0.107980;-0.234863;-0.747070;0.226807;0.441338;0.367404;0.464932;0.673850
29438;2.471188;15.347881;5.931966;0.861171;-0.649453;0.233406;-0.248535;-0.742432;0.244141;0.439809;0.375098;0.466686;0.669383
29439;3.828615;13.949691;3.994495;0.706661;-0.237365;0.255154;-0.240723;-0.729492;0.246826;0.436899;0.379940;0.469048;0.666902
29440;3.408110;10.841782;3.260764;-0.368919;0.308673;0.137377;-0.245605;-0.741211;0.247070;0.435997;0.377412;0.467729;0.669848
29441;1.904880;8.407081;3.058274;-0.321443;0.494165;0.021681;-0.244141;-0.739014;0.242920;0.434868;0.373578;0.467698;0.672747
29442;-0.099465;8.487107;4.310138;0.404585;0.329878;-0.122674;-0.240234;-0.735596;0.245361;0.432938;0.372747;0.471571;0.671748
29443;-0.584804;9.622708;4.714874;0.540721;-0.368496;-0.155983;-0.246826;-0.734375;0.256348;0.433523;0.376184;0.473768;0.667898
29444;0.450660;10.150340;4.414194;-0.077034;-0.905616;-0.187378;-0.239014;-0.739014;0.250732;0.438266;0.380206;0.470692;0.664692
29445;1.297625;9.700201;4.154049;-0.846064;-0.635091;-0.328679;-0.220215;-0.743408;0.249512;0.445162;0.379340;0.464741;0.664792
29446;1.638769;9.635586;4.561773;-1.003065;-0.585010;-0.322789;-0.224365;-0.753662;0.232178;0.452341;0.377647;0.458017;0.665576
29447;2.214049;9.725958;4.691424;-0.746795;-0.615807;-0.248251;-0.215576;-0.753906;0.235352;0.458334;0.377304;0.452344;0.665550
29448;2.536460;9.440765;4.301881;-0.574856;-0.345851;-0.209297;-0.210693;-0.750732;0.229736;0.462539;0.376273;0.448506;0.665822
29449;1.825083;8.863377;3.751147;-0.518402;-0.013950;-0.236727;-0.209717;-0.766113;0.211914;0.465464;0.373507;0.446332;0.666801
29450;0.987845;8.288293;3.422320;-0.323631;0.041308;-0.272896;-0.211670;-0.763184;0.212891;0.467779;0.371034;0.445549;0.667085
29451;0.528864;7.872286;3.246822;-0.054165;-0.014774;-0.318146;-0.206055;-0.760498;0.214844;0.469684;0.369743;0.446199;0.666028
29452;0.114035;7.774369;3.075049;0.139303;-0.057869;-0.385635;-0.197021;-0.761475;0.216553;0.471529;0.369202;0.447956;0.663841
29453;-0.059329;7.773842;2.928191;0.116778;-0.168962;-0.436267;-0.196289;-0.765869;0.213379;0.474154;0.369005;0.449288;0.661175
29454;-0.070473;7.745047;2.792811;-0.036320;-0.297387;-0.436260;-0.189209;-0.763428;0.209961;0.477699;0.368881;0.449274;0.658698
29455;0.182944;7.557450;2.690504;-0.214808;-0.401814;-0.401444;-0.173828;-0.765869;0.215820;0.481983;0.368738;0.447748;0.656694
29456;0.608473;7.065881;2.595279;-0.449785;-0.465917;-0.344482;-0.177246;-0.774902;0.214355;0.486949;0.368245;0.444461;0.655538
29457;1.053500;6.502336;2.780799;-0.795416;-0.452915;-0.265793;-0.171875;-0.774414;0.199219;0.492429;0.366524;0.439102;0.656021
29458;1.248208;6.000554;2.836186;-0.810994;-0.369942;-0.183050;-0.167969;-0.781006;0.196289;0.497172;0.364560;0.433716;0.657120
29459;1.228607;5.917456;2.748146;-0.446059;-0.310640;-0.101863;-0.168457;-0.782471;0.183105;0.500134;0.364077;0.430306;0.657382
29460;1.163343;6.226523;2.764118;0.077274;-0.283779;-0.021754;-0.168945;-0.790283;0.190674;0.500954;0.365892;0.429631;0.656190
29461;1.316595;6.849121;2.797271;0.291343;-0.274325;0.036775;-0.167725;-0.781494;0.190918;0.500765;0.368763;0.429982;0.654495
29462;1.415282;7.460368;2.928302;0.279179;-0.202372;0.055226;-0.164551;-0.773193;0.201416;0.500250;0.371251;0.430505;0.653137
29463;1.577348;8.005250;2.850749;0.279420;-0.131236;0.058997;-0.177979;-0.777100;0.191895;0.499467;0.373383;0.431304;0.651993
29464;1.590848;8.629260;2.963689;0.355074;-0.041935;0.068158;-0.166016;-0.777100;0.203613;0.498012;0.375315;0.432889;0.650945
29465;1.466843;9.445053;3.344041;0.329541;0.013989;0.084515;-0.170898;-0.773438;0.204346;0.496423;0.376962;0.434462;0.650159
29466;1.458835;10.100599;3.586311;-0.058030;0.025060;0.081989;-0.180908;-0.776367;0.214600;0.496002;0.376918;0.434000;0.650815
29467;1.662412;10.397343;3.738715;-0.540447;0.082944;0.077136;-0.171143;-0.779297;0.203125;0.496867;0.374527;0.431194;0.653394
29468;1.557072;10.399296;3.640835;-0.494728;0.261827;0.037246;-0.175781;-0.779541;0.190918;0.497219;0.371243;0.429451;0.656143
29469;1.134210;10.334743;3.416028;-0.005202;0.280646;-0.018785;-0.167236;-0.774658;0.189209;0.496272;0.369666;0.430640;0.656971
29470;1.497917;10.522341;3.994578;0.387407;0.055634;-0.049183;-0.169922;-0.777100;0.189697;0.495123;0.370861;0.433113;0.655536
29471;2.290631;12.211879;5.790735;0.498617;0.061404;-0.104949;-0.169189;-0.769287;0.212891;0.493891;0.372263;0.436394;0.653493
29472;1.634920;14.741758;5.627596;1.050363;0.397386;-0.084082;-0.176270;-0.778076;0.222656;0.489582;0.374174;0.443973;0.650531
29473;-0.636713;16.814024;4.929945;1.222456;0.480516;-0.096333;-0.179199;-0.773682;0.233643;0.484426;0.376234;0.452827;0.647092
29474;-2.409824;14.635666;3.969418;-0.102738;0.380990;-0.266387;-0.169678;-0.769531;0.227295;0.484671;0.372800;0.454645;0.647620
29475;-1.935262;10.208730;3.864914;-1.205750;0.072131;-0.461407;-0.166748;-0.777344;0.208008;0.490563;0.365832;0.449825;0.650517
29476;-0.332384;7.061002;4.195227;-0.694532;-0.154741;-0.465486;-0.155518;-0.781006;0.201172;0.495714;0.362122;0.446834;0.650749
29477;1.246170;5.510382;5.110134;-0.334789;-0.126883;-0.413253;-0.162354;-0.782471;0.202637;0.499401;0.359947;0.445721;0.649900
29478;2.161160;5.061982;5.266964;-0.428488;0.182329;-0.238349;-0.159668;-0.796143;0.197266;0.501204;0.356312;0.444886;0.651086
29479;2.141160;5.526222;5.009217;-0.055957;0.493869;0.084202;-0.164062;-0.788330;0.196289;0.499002;0.353743;0.446395;0.653142
29480;1.713366;7.287940;5.656290;0.523499;0.523437;0.367659;-0.160645;-0.782959;0.198730;0.493414;0.354461;0.450333;0.654294
29481;0.918283;9.379359;5.744706;0.590740;0.665378;0.402666;-0.174072;-0.776611;0.201904;0.486930;0.354830;0.455057;0.655682
29482;-0.314270;10.846400;5.213847;0.126017;0.876056;0.339860;-0.179688;-0.777588;0.199707;0.481297;0.351874;0.458271;0.659185
29483;-0.948582;10.504939;4.247142;-0.362162;0.724850;0.374982;-0.185303;-0.777100;0.195801;0.477466;0.347911;0.458060;0.664202
29484;-0.707297;9.495939;3.644697;-0.133357;0.456465;0.354988;-0.195068;-0.781982;0.191162;0.474099;0.346264;0.458081;0.667452
29485;-0.274041;8.904233;3.489101;0.195021;0.317550;0.318446;-0.210449;-0.770996;0.193359;0.470492;0.346524;0.459486;0.668903
29486;0.168101;8.511180;3.483575;0.237515;0.197075;0.335855;-0.209229;-0.770264;0.198242;0.467051;0.347640;0.460635;0.669944
29487;0.276997;8.372091;3.436632;0.281238;0.205565;0.343898;-0.213379;-0.780029;0.201416;0.463446;0.348938;0.462005;0.670829
29488;0.188981;8.280815;3.271396;0.160181;0.216730;0.346189;-0.220215;-0.768311;0.195801;0.460153;0.349722;0.462714;0.672198
29489;0.065126;8.064129;3.030363;-0.088951;0.178356;0.373169;-0.216553;-0.771484;0.199707;0.457555;0.349847;0.461807;0.674526
29490;-0.053283;7.658936;2.834601;-0.218235;0.137968;0.384946;-0.234131;-0.761475;0.188477;0.455482;0.349795;0.459944;0.677223
29491;-0.126506;7.393786;2.821246;-0.213262;0.105348;0.365079;-0.234619;-0.764893;0.188232;0.453535;0.349800;0.458085;0.679782
29492;-0.150161;7.221167;2.888348;-0.161204;0.048972;0.318172;-0.242920;-0.769775;0.194092;0.451953;0.350167;0.456418;0.681765
29493;-0.143417;7.185530;2.808439;-0.088686;0.047647;0.242430;-0.243652;-0.768555;0.189941;0.450584;0.350523;0.455381;0.683181
29494;-0.245505;7.378581;2.674828;0.090679;0.079880;0.153853;-0.240479;-0.759277;0.184082;0.449086;0.351039;0.455734;0.683666
29495;-0.469060;7.535435;2.510288;0.293572;0.078030;0.079180;-0.241699;-0.768799;0.193848;0.447441;0.352046;0.457446;0.683084
29496;-0.768921;7.648413;2.565699;0.369134;0.083974;-0.003715;-0.244629;-0.765625;0.205566;0.446036;0.352995;0.459841;0.681904
29497;-1.212721;7.902782;2.559773;0.350934;0.074643;-0.087175;-0.241211;-0.765625;0.191895;0.445178;0.353602;0.462347;0.680453
29498;-1.497227;8.034608;2.555344;0.309721;-0.033823;-0.139754;-0.240723;-0.768799;0.206299;0.445147;0.354446;0.464372;0.678653
29499;-1.506595;8.264600;2.777886;0.226168;-0.272666;-0.170158;-0.242432;-0.766113;0.212646;0.446464;0.356221;0.465122;0.676342
29500;-0.908914;8.625005;3.233634;0.175862;-0.589320;-0.150720;-0.237305;-0.770752;0.207520;0.449012;0.359644;0.464360;0.673360
29501;-0.051572;9.142426;3.733668;0.056816;-0.668063;-0.112407;-0.227539;-0.765137;0.217041;0.451994;0.363190;0.462506;0.670732
29502;0.677614;9.645218;3.831294;-0.122008;-0.509442;-0.050973;-0.233643;-0.762207;0.220947;0.454586;0.365434;0.460034;0.669461
29503;1.217602;9.600220;3.696402;-0.225339;-0.326655;0.020720;-0.234131;-0.763916;0.218994;0.456335;0.366506;0.457480;0.669436
29504;0.908427;9.309640;3.607934;-0.045610;-0.033582;0.035063;-0.229004;-0.758545;0.216309;0.456329;0.366675;0.456999;0.669675
29505;-0.074910;9.812616;4.342743;0.322046;0.094097;-0.004530;-0.227051;-0.769531;0.216064;0.454959;0.367394;0.459159;0.668735
29506;-0.174273;11.787743;5.210347;0.418161;-0.139778;-0.033432;-0.228027;-0.759521;0.220703;0.454373;0.369678;0.461036;0.666580
29507;0.640844;14.096633;5.501228;0.480403;-0.346854;-0.010489;-0.222412;-0.762695;0.233154;0.454228;0.373410;0.462411;0.663640
29508;2.024973;14.857179;4.298487;0.831068;-0.395240;0.108965;-0.233154;-0.760498;0.245605;0.452542;0.379213;0.465125;0.659592
29509;2.646192;12.794459;3.107955;0.292223;-0.113540;0.098862;-0.223877;-0.753906;0.240967;0.451437;0.381336;0.465996;0.658510
29510;1.788232;10.566840;3.606276;-0.350515;0.177380;0.001746;-0.229248;-0.756104;0.235840;0.451823;0.379096;0.464708;0.660446
29511;0.568724;9.069345;2.900706;0.263286;0.150386;-0.078371;-0.221924;-0.759033;0.244385;0.450780;0.378981;0.466963;0.659634
29512;-0.387964;8.009376;2.350025;0.866592;-0.017757;-0.206469;-0.233154;-0.756592;0.258301;0.449243;0.381597;0.472253;0.655394
29513;-0.815309;7.673127;2.947089;0.631674;-0.466017;-0.320965;-0.226562;-0.756592;0.263916;0.450723;0.385244;0.474980;0.650254
29514;-0.364099;8.000121;3.451209;0.047938;-0.937660;-0.394457;-0.213135;-0.757812;0.275391;0.456317;0.388934;0.472978;0.645598
29515;0.194811;8.612392;3.599240;-0.344916;-1.038114;-0.462687;-0.212158;-0.768799;0.268555;0.463954;0.391409;0.468634;0.641816
29516;0.599746;9.465586;3.798995;-0.713861;-1.065103;-0.524754;-0.192383;-0.763672;0.256592;0.473112;0.392256;0.462400;0.639129
29517;1.424202;10.108049;4.266334;-0.934952;-1.254883;-0.498184;-0.179199;-0.763916;0.261963;0.483558;0.393319;0.454048;0.636642
29518;2.598242;10.413710;4.784794;-0.985396;-1.148587;-0.432452;-0.180908;-0.781738;0.242676;0.493346;0.393817;0.445550;0.634825
29519;2.988726;9.638029;4.394313;-1.049865;-0.808938;-0.396366;-0.165039;-0.776123;0.232666;0.501745;0.392267;0.437960;0.634484
29520;2.521732;8.678110;3.952334;-0.940475;-0.594012;-0.356166;-0.153320;-0.790771;0.223389;0.508786;0.390185;0.431630;0.634498
29521;1.837036;8.155001;3.804976;-0.472640;-0.516982;-0.349601;-0.149414;-0.780518;0.220215;0.514007;0.389708;0.428019;0.633027
29522;1.139869;8.172041;3.868084;0.067249;-0.505058;-0.389141;-0.147949;-0.788818;0.218994;0.517592;0.391312;0.427437;0.629500
29523;0.594041;8.551212;3.668392;0.383527;-0.520767;-0.451164;-0.145020;-0.787354;0.230713;0.520483;0.394106;0.428648;0.624531
29524;0.537455;8.847259;3.555969;0.370952;-0.658863;-0.466176;-0.126709;-0.788330;0.240723;0.523938;0.397479;0.429237;0.619076
29525;0.885470;8.606204;3.160716;0.001911;-0.715501;-0.459383;-0.117432;-0.788330;0.240723;0.528820;0.399582;0.427590;0.614695
29526;1.028647;8.122403;2.879139;-0.402435;-0.616112;-0.454942;-0.109619;-0.791504;0.229248;0.534648;0.399391;0.424270;0.612073
29527;1.104181;7.799504;2.910795;-0.513758;-0.581315;-0.426076;-0.101562;-0.791504;0.228516;0.540544;0.398603;0.420419;0.610062
29528;1.244579;7.565091;2.864557;-0.441724;-0.584504;-0.377532;-0.103027;-0.791260;0.224609;0.545939;0.398310;0.416737;0.607972
29529;1.350992;7.404007;2.861134;-0.322562;-0.513420;-0.332913;-0.087891;-0.795410;0.223877;0.550392;0.398305;0.413849;0.605931
