// Start Time: Unknown
// Update Rate: 60.0Hz
// Filter Profile: human (46.1)
// Firmware Version: 4.4.0
PacketCounter;Acc_X;Acc_Y;Acc_Z;Gyr_X;Gyr_Y;Gyr_Z;Mag_X;Mag_Y;Mag_Z;Quat_q0;Quat_q1;Quat_q2;Quat_q3
28597;9.368375;-2.354480;-1.567639;-0.003102;-0.000319;-0.013657;-0.540527;0.654785;-0.008057;0.549922;-0.548340;-0.528597;-0.342776
28598;9.389859;-2.330434;-1.554435;-0.005546;0.003473;-0.016465;-0.539795;0.654541;-0.006836;0.549865;-0.548283;-0.528640;-0.342891
28599;9.377978;-2.317390;-1.534759;-0.008209;0.002397;-0.016831;-0.548584;0.654785;-0.002197;0.549789;-0.548241;-0.528682;-0.343015
28600;9.385143;-2.332068;-1.565310;-0.007352;0.003600;-0.015129;-0.540283;0.654053;-0.001465;0.549728;-0.548197;-0.528714;-0.343134
28601;9.381259;-2.354646;-1.565828;-0.014314;0.005594;-0.011619;-0.540527;0.668457;-0.013184;0.549654;-0.548195;-0.528701;-0.343277
28602;9.381952;-2.352212;-1.565333;-0.016378;0.008444;-0.014388;-0.542236;0.656494;-0.006836;0.549575;-0.548181;-0.528681;-0.343454
28603;9.385038;-2.349589;-1.585601;-0.016136;0.003567;-0.010625;-0.543701;0.655273;-0.005859;0.549487;-0.548198;-0.528667;-0.343591
28604;9.383182;-2.347507;-1.565028;-0.010719;0.003198;-0.014640;-0.543457;0.660645;-0.002197;0.549410;-0.548173;-0.528689;-0.343720
28605;9.385856;-2.320368;-1.543591;-0.011363;0.002646;-0.012840;-0.543213;0.654297;0.000732;0.549333;-0.548161;-0.528703;-0.343841
28606;9.392914;-2.335388;-1.574453;-0.014729;0.002236;-0.012348;-0.550293;0.650146;-0.010986;0.549241;-0.548166;-0.528706;-0.343974
28607;9.387324;-2.340224;-1.585918;-0.019183;0.003435;-0.011038;-0.541260;0.648438;-0.011963;0.549137;-0.548194;-0.528686;-0.344126
28608;9.400109;-2.323647;-1.563634;-0.018158;0.003048;-0.012800;-0.541260;0.652344;-0.002686;0.549030;-0.548212;-0.528679;-0.344279
28609;9.371766;-2.307592;-1.556555;-0.017440;0.004538;-0.013319;-0.542480;0.655029;-0.003418;0.548931;-0.548219;-0.528670;-0.344439
28610;9.391105;-2.308229;-1.564890;-0.013246;0.001845;-0.012792;-0.537842;0.653076;-0.005859;0.548841;-0.548216;-0.528683;-0.344568
28611;9.422636;-2.294783;-1.550693;-0.019952;0.005328;-0.011125;-0.552002;0.658691;-0.005127;0.548741;-0.548239;-0.528654;-0.344735
28612;9.411314;-2.264415;-1.561995;-0.024653;0.007182;-0.007633;-0.543701;0.651367;-0.009521;0.548636;-0.548291;-0.528589;-0.344920
28613;9.408151;-2.269379;-1.593519;-0.033626;0.010799;-0.005955;-0.546875;0.655518;-0.001221;0.548510;-0.548377;-0.528476;-0.345156
28614;9.364728;-2.311049;-1.598727;-0.032896;0.014447;-0.006131;-0.548340;0.655273;-0.007324;0.548396;-0.548449;-0.528353;-0.345410
28615;9.352314;-2.341658;-1.589383;-0.027984;0.013243;-0.006121;-0.538574;0.651123;-0.000977;0.548300;-0.548502;-0.528252;-0.345635
28616;9.399311;-2.296206;-1.603048;-0.024173;0.011493;-0.005633;-0.543945;0.650879;-0.004395;0.548213;-0.548556;-0.528161;-0.345825
28617;9.400927;-2.288538;-1.549778;-0.019124;0.009995;-0.003396;-0.545410;0.651123;-0.003418;0.548147;-0.548596;-0.528088;-0.345977
28618;9.407629;-2.238222;-1.526761;-0.017776;0.005649;-0.000117;-0.537598;0.645752;-0.004150;0.548077;-0.548655;-0.528025;-0.346092
28619;9.382555;-2.284283;-1.540954;-0.015523;0.003364;-0.000475;-0.542236;0.660645;0.005371;0.548012;-0.548705;-0.527976;-0.346189
28620;9.357403;-2.330535;-1.555366;-0.011253;0.001595;0.001340;-0.552002;0.655029;0.002930;0.547949;-0.548762;-0.527936;-0.346259
28621;9.382707;-2.350780;-1.594626;-0.008146;0.000505;0.002692;-0.546875;0.656006;-0.003174;0.547897;-0.548800;-0.527917;-0.346311
28622;9.370444;-2.365042;-1.617495;-0.005955;-0.000558;0.001396;-0.537598;0.656250;0.004150;0.547861;-0.548827;-0.527907;-0.346339
28623;9.351646;-2.361928;-1.609562;-0.009062;0.000533;0.000043;-0.541016;0.660156;0.004150;0.547808;-0.548890;-0.527871;-0.346379
28624;9.351640;-2.361650;-1.610006;-0.007589;-0.002019;-0.000739;-0.550537;0.663330;-0.001953;0.547743;-0.548956;-0.527856;-0.346401
28625;9.381757;-2.368492;-1.565258;-0.008356;-0.000131;-0.000817;-0.543457;0.658691;-0.002197;0.547685;-0.549004;-0.527844;-0.346434
28626;9.384657;-2.325148;-1.574788;-0.008096;0.001373;-0.002655;-0.552490;0.655518;-0.003662;0.547645;-0.549044;-0.527821;-0.346469
28627;9.365910;-2.321812;-1.566895;-0.011588;-0.000836;0.001891;-0.549805;0.658203;0.002930;0.547584;-0.549106;-0.527798;-0.346501
28628;9.405054;-2.345449;-1.573703;-0.010313;-0.001870;-0.002054;-0.534912;0.664795;0.003906;0.547501;-0.549172;-0.527791;-0.346539
28629;9.347279;-2.384591;-1.613440;-0.007664;-0.002947;-0.002026;-0.538086;0.655273;0.000488;0.547448;-0.549268;-0.527750;-0.346534
28630;9.351776;-2.358996;-1.613102;-0.003268;-0.002920;-0.004271;-0.548340;0.652588;-0.002930;0.547413;-0.549304;-0.527755;-0.346523
28631;9.338102;-2.354276;-1.646459;-0.000036;-0.002213;-0.006980;-0.548584;0.656006;0.000977;0.547383;-0.549282;-0.527807;-0.346526
28632;9.363191;-2.349122;-1.643677;0.001065;-0.001668;-0.007454;-0.536133;0.658203;0.007080;0.547343;-0.549278;-0.527856;-0.346522
28633;9.371650;-2.315954;-1.610746;-0.003008;0.002833;-0.012045;-0.550781;0.652100;0.000000;0.547287;-0.549311;-0.527860;-0.346552
28634;9.379848;-2.324998;-1.589085;-0.002500;-0.000560;-0.010131;-0.539062;0.653076;-0.000488;0.547222;-0.549291;-0.527926;-0.346587
28635;9.367337;-2.355525;-1.580771;-0.006438;0.003646;-0.012499;-0.543457;0.656982;-0.003418;0.547178;-0.549285;-0.527936;-0.346648
28636;9.384722;-2.381104;-1.610163;-0.005585;0.004841;-0.010789;-0.550537;0.654297;-0.000732;0.547159;-0.549275;-0.527931;-0.346704
28637;9.358738;-2.365395;-1.623186;0.001511;0.000417;-0.012416;-0.539307;0.655762;0.000488;0.547117;-0.549229;-0.528003;-0.346731
28638;9.369773;-2.331419;-1.610612;0.005200;0.001112;-0.013800;-0.539307;0.652344;0.004150;0.547114;-0.549193;-0.528049;-0.346723
28639;9.380594;-2.339679;-1.609256;0.005448;0.000465;-0.015987;-0.544434;0.659180;0.001465;0.547078;-0.549155;-0.528125;-0.346724
28640;9.354693;-2.323487;-1.622428;0.003567;-0.000346;-0.015939;-0.540771;0.655518;-0.003174;0.547040;-0.549136;-0.528182;-0.346730
28641;9.381327;-2.310706;-1.566608;-0.003210;0.004356;-0.015213;-0.547607;0.653076;-0.006348;0.547027;-0.549103;-0.528195;-0.346782
28642;9.399041;-2.293421;-1.584890;-0.008717;0.001623;-0.012842;-0.541992;0.656250;-0.000977;0.546985;-0.549068;-0.528224;-0.346860
28643;9.388617;-2.298922;-1.554955;-0.010331;0.004471;-0.014284;-0.546875;0.657715;-0.002197;0.546929;-0.549084;-0.528212;-0.346941
28644;9.375427;-2.292723;-1.587599;-0.017378;0.005513;-0.012069;-0.552734;0.666748;0.003662;0.546851;-0.549125;-0.528170;-0.347062
28645;9.349278;-2.319172;-1.611971;-0.015039;0.006312;-0.010794;-0.543701;0.659424;0.004150;0.546747;-0.549228;-0.528103;-0.347165
28646;9.358227;-2.352070;-1.632053;-0.011673;0.006730;-0.011278;-0.540283;0.657959;0.000000;0.546672;-0.549296;-0.528056;-0.347247
28647;9.379467;-2.328407;-1.618347;-0.008645;0.002559;-0.011561;-0.543945;0.644775;-0.003418;0.546631;-0.549339;-0.528024;-0.347291
28648;9.395696;-2.305567;-1.563744;-0.009810;0.003238;-0.012026;-0.540039;0.659180;0.004395;0.546586;-0.549269;-0.528079;-0.347389
28649;9.396234;-2.303486;-1.563576;-0.010518;0.003901;-0.011166;-0.548828;0.656250;0.004639;0.546516;-0.549359;-0.528028;-0.347435
28650;9.363317;-2.313276;-1.557333;-0.015236;0.003582;-0.008024;-0.546143;0.660156;0.001221;0.546398;-0.549443;-0.528003;-0.347527
28651;9.374779;-2.303453;-1.587316;-0.012407;0.000937;-0.011470;-0.544434;0.660156;0.005371;0.546316;-0.549516;-0.527967;-0.347595
28652;9.390449;-2.311028;-1.627612;-0.009289;0.002000;-0.009766;-0.537109;0.659180;-0.001709;0.546232;-0.549611;-0.527927;-0.347637
28653;9.368546;-2.312886;-1.651284;-0.010455;0.002679;-0.010231;-0.552490;0.655762;-0.005615;0.546228;-0.549676;-0.527842;-0.347671
28654;9.393880;-2.306791;-1.648101;-0.017247;0.005224;-0.009856;-0.539795;0.656494;-0.001465;0.546176;-0.549668;-0.527804;-0.347821
28655;9.360256;-2.334905;-1.610878;-0.016075;0.006701;-0.009043;-0.543945;0.652100;0.003906;0.546153;-0.549728;-0.527712;-0.347903
28656;9.373509;-2.343115;-1.630004;-0.015618;0.006684;-0.007718;-0.544434;0.652100;0.005859;0.546068;-0.549784;-0.527679;-0.347998
28657;9.379985;-2.334429;-1.618537;-0.014852;0.002645;-0.007994;-0.549072;0.657715;0.007568;0.545949;-0.549861;-0.527674;-0.348070
28658;9.399330;-2.293208;-1.615148;-0.018272;0.007761;-0.007750;-0.549805;0.654541;0.004395;0.545813;-0.549981;-0.527613;-0.348186
28659;9.368891;-2.302910;-1.629209;-0.013609;0.005048;-0.005892;-0.539307;0.655518;0.000977;0.545716;-0.550041;-0.527591;-0.348277
28660;9.358173;-2.351922;-1.610542;-0.006237;0.004300;-0.009001;-0.542480;0.659912;-0.000977;0.545720;-0.550078;-0.527536;-0.348297
28661;9.375775;-2.292818;-1.617298;0.002360;-0.000506;-0.011060;-0.539795;0.654297;0.000488;0.545748;-0.550090;-0.527509;-0.348272
28662;9.389010;-2.258758;-1.625310;0.000943;0.000814;-0.009338;-0.539551;0.658447;-0.001465;0.545771;-0.550088;-0.527504;-0.348249
28663;9.388603;-2.275871;-1.594251;-0.007590;0.004393;-0.006342;-0.545898;0.653809;0.006104;0.545804;-0.550148;-0.527401;-0.348257
28664;9.372554;-2.356048;-1.629166;-0.013290;0.005331;-0.006794;-0.540283;0.655029;0.003418;0.545702;-0.550224;-0.527378;-0.348333
28665;9.346367;-2.383308;-1.653505;-0.013285;0.007485;-0.006443;-0.538818;0.649902;0.001465;0.545666;-0.550309;-0.527292;-0.348385
28666;9.378526;-2.352095;-1.669035;-0.008565;0.007815;-0.009582;-0.546387;0.661865;0.001221;0.545667;-0.550301;-0.527264;-0.348438
28667;9.345847;-2.361811;-1.661964;-0.005791;0.008559;-0.013614;-0.548828;0.656982;0.002197;0.545659;-0.550335;-0.527189;-0.348511
28668;9.350946;-2.334559;-1.659451;0.000557;0.010345;-0.014608;-0.540527;0.660400;0.010498;0.545654;-0.550287;-0.527190;-0.348593
28669;9.372339;-2.310733;-1.644390;0.007353;0.007807;-0.014979;-0.545898;0.657227;0.006592;0.545620;-0.550359;-0.527171;-0.348560
28670;9.382613;-2.295095;-1.599659;0.005543;0.007917;-0.013647;-0.539307;0.653320;0.003906;0.545595;-0.550356;-0.527189;-0.348577
28671;9.412397;-2.306423;-1.605496;0.004120;0.007083;-0.012277;-0.541016;0.654297;0.006592;0.545620;-0.550340;-0.527188;-0.348566
28672;9.404480;-2.269908;-1.583496;0.003868;0.007724;-0.010089;-0.544922;0.650635;0.001953;0.545615;-0.550359;-0.527183;-0.348552
28673;9.378540;-2.254546;-1.595484;0.002244;0.008422;-0.011883;-0.542725;0.654053;-0.006348;0.545630;-0.550275;-0.527223;-0.348599
28674;9.370626;-2.302738;-1.596826;0.009423;0.000636;-0.012917;-0.541992;0.658936;0.000977;0.545753;-0.550147;-0.527244;-0.348577
28675;9.379682;-2.335903;-1.617104;0.016220;-0.001898;-0.013286;-0.545654;0.657715;-0.003418;0.545816;-0.550120;-0.527268;-0.348483
28676;9.380028;-2.292060;-1.605407;0.024641;-0.005125;-0.011863;-0.551514;0.656982;-0.000244;0.545937;-0.550002;-0.527343;-0.348367
28677;9.400888;-2.269179;-1.591687;0.017133;-0.001931;-0.010635;-0.539795;0.654541;0.008789;0.545971;-0.549907;-0.527432;-0.348329
28678;9.370518;-2.321718;-1.617082;0.007748;0.002596;-0.009011;-0.537109;0.657715;0.003662;0.545935;-0.549969;-0.527457;-0.348250
28679;9.352224;-2.359966;-1.619652;0.008001;0.001956;-0.011201;-0.549316;0.660400;0.008057;0.545969;-0.550024;-0.527422;-0.348163
28680;9.365543;-2.368314;-1.638564;0.009489;0.001565;-0.011635;-0.547363;0.654541;-0.007080;0.545897;-0.550072;-0.527464;-0.348136
28681;9.386600;-2.345000;-1.624288;0.011300;0.003613;-0.012619;-0.544434;0.657227;0.004883;0.546018;-0.549919;-0.527486;-0.348155
28682;9.382832;-2.325999;-1.613100;0.014022;0.001318;-0.011649;-0.543945;0.656250;-0.002441;0.546022;-0.549917;-0.527531;-0.348084
28683;9.418223;-2.245698;-1.585456;0.009488;0.001567;-0.011638;-0.545166;0.661865;-0.002441;0.546092;-0.549865;-0.527533;-0.348054
28684;9.404120;-2.216369;-1.575275;0.004246;0.006783;-0.010065;-0.538330;0.653564;0.010742;0.546161;-0.549886;-0.527433;-0.348063
28685;9.423430;-2.217894;-1.582352;-0.000473;0.006444;-0.006925;-0.542480;0.654297;0.006836;0.546093;-0.549994;-0.527431;-0.348002
28686;9.388782;-2.253473;-1.597013;-0.000980;0.005572;-0.002896;-0.546631;0.653564;-0.002441;0.546055;-0.550076;-0.527408;-0.347967
28687;9.365110;-2.281344;-1.641530;-0.000980;0.005572;-0.002897;-0.536621;0.650635;0.001465;0.546101;-0.550047;-0.527373;-0.347993
28688;9.386024;-2.301616;-1.638355;0.002387;0.008155;-0.003026;-0.537354;0.658691;-0.004639;0.546178;-0.550051;-0.527327;-0.347937
28689;9.375227;-2.309342;-1.607480;0.007376;0.003582;-0.002408;-0.542236;0.666260;0.005615;0.546333;-0.550082;-0.527196;-0.347843
28690;9.373793;-2.333638;-1.628211;0.012941;0.002962;-0.004181;-0.545654;0.662842;-0.001953;0.546361;-0.550228;-0.527093;-0.347723
28691;9.378397;-2.350803;-1.637337;0.019674;0.003822;-0.005138;-0.536865;0.655762;0.000244;0.546483;-0.550219;-0.527029;-0.347645
28692;9.346933;-2.338073;-1.608445;0.026997;0.000056;-0.003237;-0.545654;0.653320;0.004883;0.546642;-0.550177;-0.527040;-0.347443
28693;9.386424;-2.319147;-1.602031;0.027960;0.000914;-0.005942;-0.550781;0.653564;-0.002197;0.546700;-0.550072;-0.527184;-0.347300
28694;9.372955;-2.315243;-1.633719;0.026792;0.001592;-0.006412;-0.541992;0.661621;-0.001221;0.546804;-0.549891;-0.527308;-0.347234
28695;9.386990;-2.318563;-1.599560;0.022258;0.001838;-0.006402;-0.542725;0.654053;-0.001709;0.546923;-0.549888;-0.527270;-0.347108
28696;9.359973;-2.322636;-1.581163;0.014224;0.001952;-0.008140;-0.545898;0.651123;-0.003662;0.546997;-0.549815;-0.527314;-0.347042
28697;9.372495;-2.350043;-1.568559;0.005614;0.008886;-0.005748;-0.542236;0.659180;-0.006836;0.547071;-0.549704;-0.527336;-0.347067
28698;9.385652;-2.316712;-1.575165;-0.002285;0.010852;-0.004910;-0.546143;0.655029;-0.002686;0.547177;-0.549721;-0.527184;-0.347104
28699;9.368239;-2.337123;-1.607669;-0.009862;0.010947;-0.005320;-0.531738;0.655029;0.000732;0.547176;-0.549732;-0.527111;-0.347198
28700;9.362888;-2.342854;-1.617458;-0.013110;0.014484;-0.008567;-0.552246;0.655029;0.000244;0.547207;-0.549840;-0.526957;-0.347213
28701;9.354189;-2.355179;-1.659042;-0.006953;0.011398;-0.007129;-0.550781;0.648682;0.002441;0.547150;-0.549816;-0.526955;-0.347343
28702;9.375275;-2.332013;-1.643871;0.003077;0.011769;-0.009853;-0.541748;0.658203;0.006592;0.547113;-0.549688;-0.527068;-0.347432
28703;9.387877;-2.316293;-1.619318;0.006444;0.010048;-0.010678;-0.536621;0.658447;-0.002197;0.547088;-0.549747;-0.527049;-0.347409
28704;9.380041;-2.322328;-1.608279;0.007933;0.009660;-0.011112;-0.549805;0.666016;-0.001709;0.547194;-0.549754;-0.526960;-0.347364
28705;9.371411;-2.346729;-1.566383;0.011366;0.008866;-0.010649;-0.538574;0.649902;-0.002930;0.547238;-0.549770;-0.526879;-0.347393
28706;9.401764;-2.309654;-1.508034;0.007222;0.008164;-0.010600;-0.548828;0.653564;-0.000977;0.547329;-0.549669;-0.526909;-0.347366
28707;9.404892;-2.307912;-1.527216;0.007358;0.005709;-0.008716;-0.533203;0.650635;0.000000;0.547336;-0.549588;-0.526969;-0.347390
28708;9.399931;-2.253314;-1.556814;-0.004879;0.010691;-0.004013;-0.536377;0.655273;-0.003662;0.547394;-0.549632;-0.526890;-0.347348
28709;9.365498;-2.289057;-1.570920;-0.010124;0.011589;-0.003145;-0.547607;0.653809;-0.007080;0.547461;-0.549704;-0.526737;-0.347362
28710;9.355111;-2.326635;-1.634438;-0.008310;0.009330;-0.004825;-0.549316;0.660156;0.002930;0.547498;-0.549657;-0.526681;-0.347464
28711;9.374424;-2.328441;-1.641324;-0.004945;0.009766;-0.005302;-0.544678;0.656250;0.000732;0.547429;-0.549740;-0.526618;-0.347534
28712;9.372269;-2.328023;-1.619433;-0.005979;0.010139;-0.003541;-0.540771;0.665039;-0.000732;0.547412;-0.549796;-0.526549;-0.347577
28713;9.386334;-2.330838;-1.585238;-0.005654;0.008269;-0.004789;-0.544434;0.655029;0.000244;0.547425;-0.549957;-0.526364;-0.347582
28714;9.390068;-2.323286;-1.552139;-0.001511;0.008974;-0.004836;-0.539062;0.656006;-0.000488;0.547426;-0.549969;-0.526335;-0.347607
28715;9.398655;-2.272627;-1.548895;-0.002865;0.006905;-0.002520;-0.544434;0.655029;-0.000488;0.547455;-0.550037;-0.526252;-0.347580
28716;9.394820;-2.297178;-1.548898;-0.004745;0.008238;-0.002131;-0.545410;0.657715;0.001465;0.547454;-0.550069;-0.526201;-0.347608
28717;9.362916;-2.332833;-1.583870;-0.004358;0.009451;-0.001744;-0.544434;0.658203;0.003174;0.547435;-0.550137;-0.526128;-0.347640
28718;9.378734;-2.342059;-1.622715;0.001024;0.006097;-0.000723;-0.543701;0.652588;0.002686;0.547417;-0.550216;-0.526079;-0.347617
28719;9.383024;-2.316891;-1.620883;0.012623;0.000547;-0.003614;-0.550293;0.654541;0.000732;0.547428;-0.550181;-0.526163;-0.347529
28720;9.400903;-2.295286;-1.586378;0.018649;-0.002235;-0.004396;-0.545654;0.657715;0.002197;0.547439;-0.550096;-0.526286;-0.347460
28721;9.361839;-2.314089;-1.591167;0.014820;0.001658;-0.004561;-0.541260;0.650391;0.000977;0.547455;-0.550091;-0.526322;-0.347388
28722;9.364953;-2.355971;-1.622131;0.012295;0.002420;-0.002371;-0.540039;0.653564;0.001953;0.547505;-0.550036;-0.526391;-0.347293
28723;9.383180;-2.376964;-1.598438;0.001023;0.006097;-0.000727;-0.541260;0.653076;0.007324;0.547516;-0.550083;-0.526360;-0.347248
28724;9.374614;-2.341673;-1.576872;0.003802;0.006850;-0.004763;-0.537354;0.667725;0.006104;0.547464;-0.550132;-0.526383;-0.347216
28725;9.377593;-2.340613;-1.596266;0.005682;0.005519;-0.005152;-0.541016;0.657227;-0.007080;0.547449;-0.550347;-0.526220;-0.347144
28726;9.392341;-2.325271;-1.593277;0.003097;0.003196;-0.004593;-0.549561;0.662842;0.000000;0.547539;-0.550333;-0.526156;-0.347123
28727;9.367836;-2.329113;-1.595703;0.000890;0.006398;-0.002959;-0.537109;0.659424;0.006836;0.547518;-0.550399;-0.526081;-0.347164
28728;9.385212;-2.313348;-1.613256;-0.002993;0.005049;-0.005102;-0.548340;0.661865;0.004395;0.547456;-0.550558;-0.526005;-0.347124
28729;9.361338;-2.310700;-1.563600;0.006536;0.000248;-0.004468;-0.553467;0.660156;-0.000244;0.547393;-0.550633;-0.526010;-0.347100
28730;9.382966;-2.312363;-1.592490;0.022615;-0.010772;-0.009335;-0.546143;0.649658;0.006836;0.547365;-0.550562;-0.526163;-0.347023
28731;9.384820;-2.329457;-1.583033;0.026438;-0.012502;-0.008827;-0.545410;0.653564;-0.000977;0.547324;-0.550443;-0.526455;-0.346835
28732;9.390049;-2.328161;-1.624943;0.025788;-0.010912;-0.006684;-0.544189;0.647705;-0.003662;0.547368;-0.550334;-0.526630;-0.346672
28733;9.380734;-2.353642;-1.585232;0.020532;-0.005705;-0.005135;-0.542480;0.656250;0.002930;0.547451;-0.550160;-0.526813;-0.346539
28734;9.383103;-2.310321;-1.594643;0.014762;-0.003571;-0.006545;-0.543701;0.660156;0.005371;0.547443;-0.550167;-0.526881;-0.346437
28735;9.397255;-2.355803;-1.572649;0.012946;-0.001312;-0.004870;-0.540527;0.655762;-0.007080;0.547410;-0.550238;-0.526897;-0.346352
28736;9.358225;-2.374502;-1.577573;0.005429;0.001851;-0.003658;-0.548584;0.659180;0.000732;0.547505;-0.550209;-0.526860;-0.346306
28737;9.361050;-2.373658;-1.597587;0.004261;0.002523;-0.004129;-0.540527;0.664551;-0.003418;0.547477;-0.550235;-0.526859;-0.346310
28738;9.373850;-2.340687;-1.605281;0.003226;0.002896;-0.002368;-0.541748;0.657471;-0.001953;0.547524;-0.550348;-0.526713;-0.346276
28739;9.379972;-2.333218;-1.593115;-0.001317;0.007441;-0.001677;-0.547363;0.656738;-0.000488;0.547556;-0.550393;-0.526632;-0.346278
28740;9.364073;-2.329411;-1.604491;0.003278;0.005935;-0.007391;-0.548828;0.653809;-0.006592;0.547548;-0.550365;-0.526649;-0.346309
28741;9.374767;-2.338888;-1.602548;0.007241;0.001751;-0.004991;-0.538574;0.664307;0.003174;0.547602;-0.550258;-0.526705;-0.346310
28742;9.357935;-2.353414;-1.583673;0.006533;0.000252;-0.004474;-0.540283;0.662354;0.000732;0.547588;-0.550406;-0.526614;-0.346235
28743;9.377049;-2.355571;-1.591234;0.004192;0.003752;-0.005075;-0.544189;0.651611;0.004883;0.547593;-0.550502;-0.526528;-0.346204
28744;9.359665;-2.376343;-1.624520;0.004129;0.002823;-0.006362;-0.534180;0.652344;-0.002197;0.547548;-0.550472;-0.526629;-0.346169
28745;9.365852;-2.368411;-1.612618;0.008730;0.001366;-0.005423;-0.547852;0.656494;0.002686;0.547627;-0.550450;-0.526639;-0.346066
28746;9.374736;-2.359931;-1.621110;0.015585;0.001905;-0.010801;-0.539062;0.656006;0.002441;0.547615;-0.550377;-0.526746;-0.346036
28747;9.374739;-2.316237;-1.609353;0.011191;-0.000321;-0.008904;-0.541992;0.656494;-0.002930;0.547617;-0.550384;-0.526789;-0.345957
28748;9.362521;-2.347783;-1.600471;0.011961;0.002109;-0.008136;-0.548584;0.662598;-0.005371;0.547674;-0.550334;-0.526814;-0.345908
28749;9.359441;-2.365359;-1.548460;0.015016;-0.002046;-0.008394;-0.542480;0.656738;0.000488;0.547715;-0.550298;-0.526828;-0.345879
28750;9.370199;-2.363037;-1.630543;0.019491;-0.005358;-0.010030;-0.544678;0.666992;-0.000488;0.547732;-0.550253;-0.526931;-0.345768
28751;9.357534;-2.351843;-1.611106;0.013330;-0.002290;-0.011484;-0.541992;0.654053;-0.006348;0.547719;-0.550318;-0.526899;-0.345735
28752;9.388625;-2.338621;-1.596312;0.005357;0.000875;-0.011604;-0.541016;0.659668;-0.003418;0.547760;-0.550239;-0.526943;-0.345727
28753;9.372011;-2.352311;-1.577468;-0.001182;0.002776;-0.006787;-0.545410;0.662598;0.004639;0.547763;-0.550296;-0.526876;-0.345733
28754;9.373576;-2.375608;-1.619018;-0.003064;0.004103;-0.006399;-0.541016;0.658691;0.001465;0.547674;-0.550416;-0.526824;-0.345762
28755;9.347470;-2.360823;-1.631755;0.002614;0.007474;-0.011912;-0.538818;0.659180;-0.006348;0.547660;-0.550435;-0.526804;-0.345784
28756;9.371561;-2.330475;-1.585460;0.005866;0.003953;-0.008649;-0.544922;0.657959;-0.004150;0.547729;-0.550437;-0.526739;-0.345771
28757;9.380443;-2.321905;-1.594006;0.009763;0.001003;-0.007191;-0.547119;0.652100;-0.001221;0.547765;-0.550402;-0.526755;-0.345745
28758;9.355253;-2.343535;-1.565766;0.010798;0.000632;-0.008953;-0.541992;0.658691;-0.005859;0.547775;-0.550291;-0.526884;-0.345708
28759;9.384835;-2.355441;-1.572380;0.008219;-0.001699;-0.008386;-0.545898;0.661621;0.004639;0.547813;-0.550281;-0.526881;-0.345670
28760;9.375218;-2.386693;-1.584486;0.004525;-0.000273;-0.006665;-0.541260;0.653076;-0.005859;0.547739;-0.550363;-0.526888;-0.345647
28761;9.366589;-2.339469;-1.647219;0.001277;0.003297;-0.003273;-0.543701;0.660156;-0.009277;0.547793;-0.550330;-0.526882;-0.345621
28762;9.366207;-2.356565;-1.615604;-0.003269;0.005625;-0.009583;-0.543945;0.660645;-0.006592;0.547825;-0.550335;-0.526797;-0.345694
28763;9.358117;-2.362851;-1.605790;0.002251;0.001996;-0.006322;-0.533936;0.655518;-0.002930;0.547851;-0.550359;-0.526736;-0.345707
28764;9.372870;-2.346991;-1.603135;0.003599;0.004067;-0.008648;-0.547607;0.649902;0.000244;0.547902;-0.550370;-0.526705;-0.345656
28765;9.377838;-2.363238;-1.612425;0.001716;0.005393;-0.008262;-0.542236;0.652100;-0.003906;0.547881;-0.550275;-0.526816;-0.345672
28766;9.357568;-2.341444;-1.613733;0.000931;0.007278;-0.008351;-0.543701;0.658203;0.004395;0.547914;-0.550209;-0.526841;-0.345687
28767;9.365774;-2.350867;-1.591030;0.004053;0.004057;-0.007318;-0.537842;0.659912;-0.001953;0.547868;-0.550252;-0.526852;-0.345674
28768;9.385071;-2.352401;-1.598441;0.010344;0.000652;-0.010285;-0.547607;0.656494;0.000732;0.547901;-0.550271;-0.526836;-0.345615
28769;9.372426;-2.341326;-1.578486;0.010859;0.001572;-0.007669;-0.545410;0.659912;-0.004395;0.547892;-0.550229;-0.526908;-0.345587
28770;9.356594;-2.337204;-1.590119;0.002812;0.005953;-0.008741;-0.551270;0.654541;0.000000;0.547908;-0.550224;-0.526872;-0.345624
28771;9.377189;-2.363453;-1.639149;-0.001393;0.006508;-0.002979;-0.536133;0.657227;-0.001709;0.547873;-0.550203;-0.526902;-0.345667
28772;9.351989;-2.385425;-1.610649;0.001143;0.003596;-0.005510;-0.543213;0.656006;-0.000488;0.547897;-0.550258;-0.526846;-0.345626
28773;9.363447;-2.327555;-1.576493;0.004517;0.001889;-0.006327;-0.542725;0.656982;-0.003906;0.547892;-0.550259;-0.526869;-0.345599
28774;9.352068;-2.341053;-1.598576;0.003669;0.002843;-0.007704;-0.545410;0.658203;-0.013916;0.547911;-0.550248;-0.526866;-0.345591
28775;9.367430;-2.367649;-1.606694;-0.001659;0.007102;-0.007449;-0.541260;0.658936;0.002441;0.547994;-0.550192;-0.526794;-0.345657
28776;9.360777;-2.398391;-1.638290;-0.006202;0.009477;-0.007105;-0.541992;0.658691;-0.000732;0.547950;-0.550273;-0.526724;-0.345705
28777;9.384046;-2.375076;-1.644494;-0.002552;0.005019;-0.003791;-0.542725;0.659180;0.002686;0.547936;-0.550340;-0.526665;-0.345711
28778;9.356408;-2.336347;-1.615683;0.004324;0.001259;-0.009849;-0.545410;0.661133;-0.000244;0.547890;-0.550379;-0.526682;-0.345696
28779;9.378948;-2.330652;-1.591381;0.005028;0.002761;-0.010370;-0.543213;0.658203;0.003662;0.547863;-0.550401;-0.526677;-0.345711
28780;9.367676;-2.343878;-1.613389;0.000689;0.003610;-0.006843;-0.544922;0.657227;-0.006592;0.547813;-0.550454;-0.526676;-0.345707
28781;9.359579;-2.350339;-1.603402;-0.004248;0.006925;-0.006545;-0.541992;0.663818;0.000732;0.547829;-0.550450;-0.526626;-0.345765
28782;9.356813;-2.356271;-1.634297;-0.000038;0.006425;-0.005647;-0.544922;0.664062;0.000977;0.547810;-0.550552;-0.526526;-0.345785
28783;9.365655;-2.347917;-1.642720;0.007558;0.002061;-0.005902;-0.543945;0.657227;-0.002930;0.547794;-0.550620;-0.526482;-0.345769
28784;9.356047;-2.330266;-1.591040;0.015798;-0.001730;-0.007965;-0.544189;0.652832;0.005615;0.547836;-0.550565;-0.526546;-0.345693
28785;9.371283;-2.357057;-1.599782;0.013866;-0.003494;-0.009205;-0.541992;0.661621;-0.009521;0.547803;-0.550509;-0.526706;-0.345591
28786;9.377397;-2.348934;-1.588132;0.009823;0.001956;-0.005908;-0.542480;0.659180;0.001709;0.547885;-0.550505;-0.526641;-0.345567
28787;9.373263;-2.379934;-1.640636;0.003013;0.004434;-0.005562;-0.541748;0.656006;-0.009277;0.547870;-0.550550;-0.526619;-0.345552
28788;9.341676;-2.366449;-1.612290;0.001056;0.006984;-0.006127;-0.538330;0.657715;-0.004395;0.547940;-0.550513;-0.526572;-0.345572
28789;9.362330;-2.343230;-1.597736;-0.001735;0.008330;-0.008406;-0.541992;0.657959;-0.002930;0.547970;-0.550529;-0.526506;-0.345597
28790;9.364774;-2.359652;-1.586196;0.002034;0.005685;-0.009176;-0.545654;0.663086;-0.002197;0.547980;-0.550526;-0.526488;-0.345613
28791;9.350961;-2.373095;-1.587301;0.002034;0.005685;-0.009176;-0.537842;0.665527;-0.000244;0.547963;-0.550566;-0.526433;-0.345661
28792;9.378866;-2.366964;-1.603484;0.004358;0.006511;-0.007893;-0.543457;0.652344;-0.002930;0.547974;-0.550666;-0.526318;-0.345661
28793;9.396336;-2.350665;-1.620901;0.001712;0.005400;-0.008273;-0.543213;0.659424;-0.001709;0.547991;-0.550599;-0.526371;-0.345660
28794;9.380609;-2.346429;-1.632309;0.000529;0.008226;-0.008411;-0.543945;0.663574;-0.006836;0.547991;-0.550615;-0.526329;-0.345698
28795;9.366083;-2.377925;-1.602299;0.004240;0.004651;-0.010466;-0.538818;0.657471;-0.008301;0.548009;-0.550637;-0.526256;-0.345745
28796;9.380860;-2.361720;-1.599549;0.011518;0.000009;-0.009813;-0.546631;0.657471;-0.009766;0.548081;-0.550590;-0.526264;-0.345693
28797;9.353857;-2.365401;-1.581710;0.007747;0.002653;-0.009046;-0.541016;0.662842;-0.011719;0.548129;-0.550523;-0.526274;-0.345709
28798;9.381686;-2.359322;-1.598241;0.004765;0.003414;-0.008186;-0.541260;0.656982;-0.013184;0.548189;-0.550544;-0.526173;-0.345734
28799;9.374313;-2.347892;-1.619197;0.003786;0.004714;-0.005138;-0.548096;0.658203;0.001465;0.548277;-0.550511;-0.526111;-0.345741
28800;9.389012;-2.332046;-1.616296;0.006578;0.003321;-0.009521;-0.535645;0.666260;-0.007324;0.548243;-0.550488;-0.526170;-0.345742
28801;9.362002;-2.335841;-1.598325;0.010860;0.001600;-0.007671;-0.543945;0.651611;0.005127;0.548307;-0.550561;-0.526055;-0.345700
28802;9.379324;-2.380285;-1.596258;0.005174;0.000314;-0.008477;-0.538818;0.656982;-0.003662;0.548267;-0.550507;-0.526202;-0.345625
28803;9.369248;-2.369041;-1.596950;0.007483;0.003301;-0.006858;-0.539551;0.658691;0.001709;0.548312;-0.550493;-0.526203;-0.345574
28804;9.379635;-2.385001;-1.647272;0.001387;0.005115;-0.007375;-0.539551;0.668457;-0.004395;0.548296;-0.550534;-0.526190;-0.345554
28805;9.353863;-2.363888;-1.607804;0.002425;0.004747;-0.009138;-0.538574;0.661621;-0.006592;0.548294;-0.550646;-0.526052;-0.345589
28806;9.358263;-2.398008;-1.585971;0.007994;0.004173;-0.010905;-0.538330;0.654541;-0.000977;0.548339;-0.550652;-0.526002;-0.345585
28807;9.358762;-2.335956;-1.605103;0.003521;0.005310;-0.009616;-0.537842;0.665527;-0.005615;0.548359;-0.550617;-0.526041;-0.345549
28808;9.372418;-2.344552;-1.623273;-0.000969;0.008605;-0.007992;-0.543213;0.659912;-0.005859;0.548377;-0.550711;-0.525890;-0.345600
28809;9.366421;-2.368520;-1.602404;-0.000631;0.006733;-0.009232;-0.544434;0.662842;-0.001953;0.548380;-0.550723;-0.525840;-0.345653
28810;9.356553;-2.356750;-1.602621;-0.001084;0.006744;-0.010565;-0.544922;0.660156;-0.000488;0.548344;-0.550770;-0.525786;-0.345718
28811;9.379809;-2.332942;-1.608946;0.007425;0.002377;-0.008145;-0.541748;0.656738;-0.008545;0.548333;-0.550773;-0.525807;-0.345699
28812;9.380258;-2.331502;-1.608412;0.005688;0.001190;-0.012526;-0.542969;0.656494;-0.001221;0.548358;-0.550721;-0.525833;-0.345702
28813;9.365731;-2.362802;-1.578953;0.000554;0.003910;-0.009094;-0.544434;0.661133;-0.006104;0.548340;-0.550710;-0.525865;-0.345700
28814;9.360411;-2.368701;-1.589596;-0.006582;0.006087;-0.007851;-0.546143;0.659424;-0.002441;0.548309;-0.550768;-0.525782;-0.345782
28815;9.352034;-2.381622;-1.631991;-0.006978;0.007029;-0.007899;-0.545166;0.662109;-0.002441;0.548261;-0.550809;-0.525740;-0.345857
28816;9.362967;-2.390569;-1.629784;-0.003881;0.008136;-0.006185;-0.547607;0.658936;-0.012939;0.548233;-0.550873;-0.525658;-0.345924
28817;9.356853;-2.353956;-1.629188;-0.002182;0.006184;-0.010092;-0.542480;0.655518;-0.004639;0.548242;-0.550855;-0.525595;-0.346033
28818;9.343138;-2.367225;-1.630458;-0.003277;0.005621;-0.009617;-0.541992;0.658203;-0.004639;0.548236;-0.550837;-0.525602;-0.346062
28819;9.362592;-2.368409;-1.637548;0.001310;0.006351;-0.008332;-0.541260;0.670166;-0.007324;0.548251;-0.550834;-0.525577;-0.346080
28820;9.385117;-2.362540;-1.612750;0.004955;0.004012;-0.011334;-0.534668;0.651855;-0.000732;0.548245;-0.550940;-0.525427;-0.346149
28821;9.350499;-2.355384;-1.616606;0.004577;0.002795;-0.011717;-0.540771;0.654785;-0.004883;0.548279;-0.550867;-0.525525;-0.346061
28822;9.364560;-2.356872;-1.582731;0.003066;0.005332;-0.010954;-0.542480;0.652344;-0.007080;0.548306;-0.550811;-0.525561;-0.346055
28823;9.358240;-2.387552;-1.614483;0.000213;0.005788;-0.007858;-0.541748;0.662842;-0.006104;0.548340;-0.550745;-0.525594;-0.346055
28824;9.381510;-2.363548;-1.620732;-0.004128;0.006573;-0.011002;-0.538818;0.655762;-0.000488;0.548319;-0.550802;-0.525506;-0.346133
28825;9.372738;-2.326708;-1.599674;-0.001540;0.006762;-0.011907;-0.541748;0.657959;0.006592;0.548311;-0.550785;-0.525530;-0.346136
28826;9.374290;-2.367450;-1.609575;0.001895;0.006000;-0.011432;-0.542969;0.649170;-0.009277;0.548265;-0.550791;-0.525581;-0.346121
28827;9.361746;-2.355715;-1.589223;-0.000446;0.007328;-0.012385;-0.539795;0.658691;-0.006836;0.548306;-0.550666;-0.525651;-0.346149
28828;9.377577;-2.381487;-1.597000;0.001121;0.005724;-0.011862;-0.532227;0.654785;-0.004639;0.548326;-0.550655;-0.525625;-0.346174
28829;9.365746;-2.351718;-1.607787;0.002613;0.005349;-0.012291;-0.539062;0.652100;-0.001953;0.548377;-0.550620;-0.525638;-0.346129
28830;9.367415;-2.325004;-1.585447;0.002935;0.005638;-0.013197;-0.547119;0.657471;-0.003418;0.548391;-0.550547;-0.525712;-0.346111
28831;9.367056;-2.347742;-1.605965;0.001785;0.004143;-0.014008;-0.542236;0.654541;-0.000977;0.548357;-0.550512;-0.525750;-0.346164
28832;9.363973;-2.370622;-1.606163;-0.002747;0.004339;-0.014011;-0.539062;0.653564;0.001953;0.548313;-0.550488;-0.525799;-0.346194
28833;9.375132;-2.378710;-1.603992;-0.005323;0.009399;-0.011153;-0.547852;0.661377;-0.002930;0.548286;-0.550484;-0.525813;-0.346222
28834;9.358499;-2.331566;-1.604793;0.000498;0.002992;-0.010389;-0.543213;0.656738;-0.001709;0.548241;-0.550512;-0.525798;-0.346272
28835;9.391483;-2.335476;-1.578963;0.000346;0.005452;-0.012296;-0.540527;0.657715;-0.004639;0.548219;-0.550497;-0.525818;-0.346302
28836;9.385266;-2.298378;-1.578908;0.002732;-0.000193;-0.012009;-0.543213;0.659180;-0.009766;0.548209;-0.550493;-0.525842;-0.346287
28837;9.356350;-2.351228;-1.604349;0.002334;0.000748;-0.012058;-0.548096;0.666016;0.005127;0.548217;-0.550477;-0.525838;-0.346306
28838;9.366356;-2.384466;-1.624115;0.000497;0.002994;-0.010391;-0.548340;0.657471;0.000488;0.548121;-0.550574;-0.525804;-0.346355
28839;9.367851;-2.357980;-1.602159;0.000421;0.004225;-0.011345;-0.545166;0.663086;0.000244;0.548066;-0.550569;-0.525838;-0.346399
28840;9.360443;-2.352450;-1.675731;0.000367;0.003295;-0.012632;-0.540283;0.651611;-0.002197;0.548007;-0.550619;-0.525815;-0.346446
28841;9.374468;-2.353742;-1.642045;0.001591;0.003563;-0.010868;-0.548096;0.654297;-0.005127;0.548014;-0.550565;-0.525883;-0.346419
28842;9.359074;-2.342258;-1.601578;0.003275;0.003779;-0.014443;-0.546143;0.656006;-0.004639;0.547998;-0.550489;-0.525951;-0.346461
28843;9.361703;-2.358169;-1.590293;0.004231;0.004688;-0.010486;-0.550049;0.652344;-0.002197;0.548004;-0.550446;-0.525978;-0.346478
28844;9.389729;-2.351374;-1.606466;0.002210;0.006303;-0.012348;-0.540771;0.656982;-0.002930;0.547981;-0.550369;-0.526052;-0.346525
28845;9.379136;-2.357420;-1.575783;0.003006;0.004422;-0.012253;-0.530029;0.658203;0.003418;0.547985;-0.550351;-0.526066;-0.346526
28846;9.363545;-2.352709;-1.587533;0.004821;0.004339;-0.013587;-0.544189;0.663330;0.000244;0.547996;-0.550376;-0.526070;-0.346463
28847;9.366969;-2.350277;-1.607307;0.005488;0.002759;-0.015733;-0.533447;0.650879;-0.001465;0.547954;-0.550397;-0.526071;-0.346495
28848;9.366721;-2.372918;-1.628017;0.002953;0.003494;-0.013542;-0.543945;0.655029;0.000244;0.547980;-0.550342;-0.526140;-0.346438
28849;9.366246;-2.328206;-1.616384;0.007354;0.003608;-0.015781;-0.547852;0.654297;-0.005615;0.547964;-0.550282;-0.526218;-0.346440
28850;9.368957;-2.343754;-1.605244;0.004071;0.001904;-0.014353;-0.543701;0.658691;-0.000732;0.547947;-0.550213;-0.526289;-0.346467
28851;9.369638;-2.341423;-1.604673;-0.002110;0.004923;-0.015839;-0.541504;0.656006;-0.015625;0.547894;-0.550223;-0.526295;-0.346527
28852;9.380881;-2.349058;-1.602775;-0.006191;0.005099;-0.014509;-0.543701;0.657715;-0.004883;0.547921;-0.550179;-0.526269;-0.346592
28853;9.370221;-2.361351;-1.624692;-0.006217;0.007260;-0.014177;-0.536621;0.661377;0.000977;0.547889;-0.550184;-0.526243;-0.346674
28854;9.376645;-2.351610;-1.612612;-0.002432;0.004637;-0.014936;-0.542236;0.657471;-0.008057;0.547850;-0.550241;-0.526210;-0.346696
28855;9.356337;-2.328886;-1.614508;0.002369;0.003815;-0.017126;-0.545410;0.663330;-0.001465;0.547857;-0.550193;-0.526229;-0.346732
28856;9.375400;-2.346688;-1.590809;0.000824;0.003258;-0.017988;-0.538330;0.657471;-0.003906;0.547797;-0.550218;-0.526220;-0.346801
28857;9.374918;-2.301588;-1.579175;-0.005448;0.007541;-0.013751;-0.540527;0.656250;-0.004883;0.547786;-0.550233;-0.526185;-0.346848
28858;9.396495;-2.326358;-1.628354;-0.007928;0.003952;-0.012227;-0.543701;0.650635;-0.003906;0.547752;-0.550258;-0.526166;-0.346891
28859;9.369821;-2.329018;-1.610480;-0.010591;0.010199;-0.017006;-0.543213;0.651123;-0.003174;0.547711;-0.550208;-0.526192;-0.346995
28860;9.354467;-2.323502;-1.622122;-0.004779;0.005967;-0.015900;-0.546631;0.655029;-0.000977;0.547679;-0.550158;-0.526243;-0.347049
28861;9.360143;-2.338342;-1.631258;-0.001820;0.007389;-0.016422;-0.551025;0.653320;0.002441;0.547635;-0.550125;-0.526273;-0.347126
28862;9.385684;-2.330610;-1.626779;-0.005711;0.008153;-0.018244;-0.542725;0.657959;-0.005859;0.547538;-0.550094;-0.526324;-0.347249
28863;9.361284;-2.350696;-1.597937;-0.009451;0.011703;-0.016200;-0.549561;0.653809;0.002197;0.547518;-0.550094;-0.526268;-0.347365
28864;9.370687;-2.340180;-1.605709;-0.007235;0.010687;-0.017487;-0.547607;0.660400;0.001953;0.547435;-0.550073;-0.526289;-0.347496
28865;9.397011;-2.307691;-1.579526;-0.007106;0.010385;-0.015244;-0.553955;0.654785;-0.001953;0.547360;-0.550116;-0.526241;-0.347620
28866;9.381664;-2.302317;-1.590931;-0.008249;0.008887;-0.016059;-0.547119;0.654541;-0.004395;0.547277;-0.550096;-0.526253;-0.347766
28867;9.368399;-2.314638;-1.592144;-0.007447;0.007008;-0.015963;-0.547119;0.650391;-0.006836;0.547228;-0.550077;-0.526258;-0.347864
28868;9.371341;-2.329713;-1.580703;-0.005984;0.008801;-0.016057;-0.539795;0.655518;-0.005859;0.547214;-0.550003;-0.526292;-0.347952
28869;9.371466;-2.351768;-1.601127;-0.001469;0.005537;-0.017671;-0.539551;0.652832;-0.003174;0.547217;-0.549966;-0.526304;-0.347987
28870;9.373035;-2.330746;-1.631248;0.000667;0.005756;-0.019912;-0.541992;0.655273;0.003418;0.547213;-0.549901;-0.526357;-0.348016
28871;9.376808;-2.320563;-1.598429;-0.000507;0.006418;-0.020394;-0.542480;0.658936;-0.006104;0.547157;-0.549883;-0.526396;-0.348074
28872;9.397400;-2.295130;-1.584025;0.000024;0.005174;-0.018102;-0.543945;0.658936;-0.009033;0.547152;-0.549861;-0.526391;-0.348123
28873;9.392601;-2.299766;-1.594418;-0.001825;0.007411;-0.016436;-0.551514;0.655518;-0.011963;0.547164;-0.549835;-0.526361;-0.348192
28874;9.388435;-2.279751;-1.583469;-0.000619;0.004591;-0.016291;-0.537354;0.651123;0.002197;0.547159;-0.549769;-0.526380;-0.348276
28875;9.381399;-2.266906;-1.604511;-0.000571;0.005520;-0.015002;-0.547363;0.646973;-0.000732;0.547144;-0.549747;-0.526423;-0.348268
28876;9.380716;-2.307590;-1.594274;-0.003398;0.003788;-0.012239;-0.549805;0.648438;-0.001221;0.547099;-0.549703;-0.526494;-0.348300
28877;9.381326;-2.305467;-1.593755;-0.004252;0.004742;-0.013628;-0.543457;0.658691;-0.007324;0.547041;-0.549663;-0.526554;-0.348364
28878;9.370097;-2.335959;-1.584963;-0.005795;0.004181;-0.014493;-0.547119;0.652832;-0.001709;0.547023;-0.549677;-0.526525;-0.348415
28879;9.374227;-2.308501;-1.583508;-0.004655;0.005684;-0.013679;-0.546631;0.656738;0.008545;0.546978;-0.549668;-0.526540;-0.348478
28880;9.379888;-2.323546;-1.592998;-0.002805;0.003452;-0.015346;-0.543945;0.656250;-0.006592;0.546868;-0.549724;-0.526554;-0.348539
28881;9.395197;-2.288176;-1.621343;0.004528;0.001951;-0.013032;-0.543701;0.646973;-0.007080;0.546889;-0.549691;-0.526575;-0.348527
28882;9.392907;-2.286620;-1.600410;0.003435;0.001377;-0.012558;-0.547119;0.653564;0.000488;0.546915;-0.549600;-0.526663;-0.348496
28883;9.393450;-2.284529;-1.600211;0.004837;-0.000841;-0.015565;-0.543213;0.655762;0.001221;0.546867;-0.549576;-0.526737;-0.348498
28884;9.369378;-2.287414;-1.603584;0.009049;-0.001302;-0.014646;-0.545654;0.652588;-0.006836;0.546848;-0.549559;-0.526800;-0.348458
28885;9.407891;-2.283383;-1.566673;0.007196;0.000930;-0.012980;-0.541992;0.658691;-0.001953;0.546876;-0.549490;-0.526862;-0.348430
28886;9.380986;-2.293740;-1.601683;0.007279;-0.000302;-0.012024;-0.548340;0.644531;-0.004639;0.546883;-0.549496;-0.526880;-0.348385
28887;9.387012;-2.284703;-1.590172;0.004692;-0.000512;-0.011124;-0.552490;0.664795;0.000488;0.546879;-0.549407;-0.526994;-0.348357
28888;9.395821;-2.275484;-1.599176;0.003242;0.000779;-0.009408;-0.543457;0.659668;-0.006104;0.546824;-0.549479;-0.526956;-0.348387
28889;9.379985;-2.271385;-1.611778;0.004004;-0.002026;-0.010600;-0.549805;0.657715;0.000488;0.546830;-0.549497;-0.526957;-0.348348
28890;9.387533;-2.305188;-1.611302;0.002197;0.001132;-0.007643;-0.547363;0.659180;-0.007568;0.546790;-0.549539;-0.526952;-0.348353
28891;9.392860;-2.321438;-1.621216;0.007492;-0.001839;-0.008823;-0.549805;0.653564;-0.006592;0.546810;-0.549536;-0.526960;-0.348313
28892;9.382531;-2.310211;-1.622617;0.007125;-0.003059;-0.009206;-0.548340;0.653076;0.000732;0.546811;-0.549503;-0.527019;-0.348275
28893;9.377830;-2.291425;-1.612656;0.005865;-0.001167;-0.010645;-0.544434;0.648926;-0.000977;0.546777;-0.549493;-0.527081;-0.348250
28894;9.386017;-2.300304;-1.590625;0.002836;0.001721;-0.009460;-0.542480;0.661865;-0.002197;0.546773;-0.549461;-0.527139;-0.348218
28895;9.377462;-2.331445;-1.602447;0.001341;0.002084;-0.009034;-0.542725;0.653320;-0.007080;0.546769;-0.549519;-0.527093;-0.348203
28896;9.384069;-2.304525;-1.621805;-0.000201;0.001521;-0.009899;-0.543701;0.660645;0.004395;0.546784;-0.549504;-0.527107;-0.348181
28897;9.378885;-2.310471;-1.632908;0.001745;0.001146;-0.008986;-0.538574;0.642090;-0.006104;0.546740;-0.549581;-0.527083;-0.348166
28898;9.390496;-2.294049;-1.609929;0.003430;0.001385;-0.012568;-0.545898;0.655762;-0.003418;0.546784;-0.549470;-0.527199;-0.348097
28899;9.361283;-2.280154;-1.603125;0.003645;-0.000155;-0.009363;-0.548340;0.654297;-0.001709;0.546778;-0.549474;-0.527218;-0.348070
28900;9.385729;-2.298444;-1.620829;-0.002423;0.002529;-0.008616;-0.553223;0.657471;-0.003662;0.546741;-0.549498;-0.527218;-0.348091
28901;9.369995;-2.294330;-1.632917;-0.008981;0.007386;-0.008877;-0.550293;0.657715;-0.000488;0.546686;-0.549543;-0.527161;-0.348193
28902;9.364314;-2.318248;-1.612610;-0.008491;0.005214;-0.007871;-0.543701;0.652344;0.003174;0.546620;-0.549615;-0.527107;-0.348265
28903;9.381587;-2.301196;-1.630481;-0.007446;0.004865;-0.009637;-0.546387;0.661133;0.002930;0.546563;-0.549660;-0.527098;-0.348297
28904;9.365278;-2.315065;-1.611586;-0.007401;0.005792;-0.008347;-0.545898;0.656982;0.006104;0.546499;-0.549760;-0.527021;-0.348355
28905;9.360267;-2.320727;-1.622200;-0.009112;0.007697;-0.011129;-0.550293;0.656250;0.005371;0.546418;-0.549836;-0.526975;-0.348433
28906;9.391004;-2.306354;-1.606643;-0.012340;0.006892;-0.008413;-0.542480;0.658936;0.007324;0.546316;-0.549928;-0.526921;-0.348530
28907;9.375428;-2.301833;-1.618444;-0.011870;0.009953;-0.012145;-0.550537;0.655273;-0.001465;0.546235;-0.550025;-0.526842;-0.348623
28908;9.373944;-2.281792;-1.627817;-0.015314;0.010692;-0.012637;-0.546875;0.650879;0.009033;0.546160;-0.550066;-0.526782;-0.348767
28909;9.390387;-2.306857;-1.635644;-0.014823;0.008520;-0.011631;-0.552246;0.657227;-0.000488;0.546048;-0.550128;-0.526768;-0.348865
28910;9.389268;-2.262304;-1.623770;-0.013239;0.010011;-0.009475;-0.545410;0.656738;-0.000977;0.545977;-0.550190;-0.526690;-0.348994
28911;9.403372;-2.269995;-1.642124;-0.012472;0.007208;-0.010669;-0.549316;0.658691;-0.006104;0.545921;-0.550254;-0.526625;-0.349080
28912;9.389444;-2.301253;-1.612583;-0.014781;0.009450;-0.010344;-0.541504;0.652100;-0.006592;0.545875;-0.550314;-0.526526;-0.349208
28913;9.390535;-2.274550;-1.590132;-0.018907;0.011757;-0.008688;-0.547852;0.660400;-0.003662;0.545861;-0.550353;-0.526436;-0.349302
28914;9.385255;-2.304652;-1.621776;-0.026201;0.014174;-0.009726;-0.546631;0.657227;-0.004639;0.545777;-0.550475;-0.526268;-0.349496
28915;9.367506;-2.282300;-1.643783;-0.022994;0.011907;-0.007371;-0.550293;0.647949;0.005859;0.545717;-0.550575;-0.526129;-0.349641
28916;9.375912;-2.290864;-1.620926;-0.020407;0.012127;-0.008271;-0.553955;0.650146;0.002197;0.545620;-0.550624;-0.526093;-0.349769
28917;9.387588;-2.274334;-1.597101;-0.013563;0.009730;-0.008577;-0.542969;0.644775;-0.004883;0.545545;-0.550649;-0.526069;-0.349883
28918;9.370547;-2.202874;-1.576191;-0.014291;0.010374;-0.007720;-0.541748;0.654541;-0.005615;0.545550;-0.550625;-0.526057;-0.349931
28919;9.388673;-2.136296;-1.550501;-0.014975;0.008857;-0.007199;-0.542725;0.649658;-0.008545;0.545543;-0.550674;-0.525972;-0.349991
28920;9.427466;-2.010723;-1.573178;-0.020281;0.008736;-0.007659;-0.548096;0.646240;0.004883;0.545527;-0.550701;-0.525910;-0.350068
28921;9.409310;-1.988989;-1.596395;-0.031019;0.000472;-0.001025;-0.536377;0.653320;0.008301;0.545360;-0.550863;-0.525855;-0.350157
28922;9.382198;-2.007576;-1.685142;-0.054835;0.006860;0.015979;-0.545654;0.659180;-0.000977;0.545181;-0.551252;-0.525563;-0.350260
28923;9.315255;-2.187470;-1.688969;-0.062371;0.007759;0.016785;-0.550293;0.653564;0.003906;0.544988;-0.551659;-0.525215;-0.350442
28924;9.308294;-2.311259;-1.590752;-0.032825;-0.019202;0.011535;-0.537842;0.654785;0.008301;0.544762;-0.551969;-0.525143;-0.350414
28925;9.457492;-2.153131;-1.603306;0.025989;-0.057110;0.011398;-0.537598;0.653076;0.012207;0.544662;-0.552152;-0.525396;-0.349901
28926;9.517337;-2.038884;-1.549609;0.058621;-0.088182;0.012569;-0.547607;0.657715;0.000732;0.544561;-0.552288;-0.525891;-0.349098
28927;9.490428;-2.133763;-1.567759;0.022958;-0.091496;0.028681;-0.538574;0.655518;0.001953;0.544351;-0.552632;-0.526205;-0.348407
28928;9.461378;-2.381914;-1.413402;-0.043386;-0.087834;0.046212;-0.547119;0.653076;0.010742;0.543930;-0.553337;-0.526236;-0.347900
28929;9.464343;-2.630642;-1.183829;-0.084664;-0.091508;0.062808;-0.545898;0.658447;0.008057;0.543282;-0.554321;-0.526114;-0.347531
28930;9.472989;-2.544422;-1.062962;-0.077713;-0.105550;0.066084;-0.543945;0.659180;0.010986;0.542636;-0.555335;-0.526027;-0.347051
28931;9.508288;-2.069487;-1.150477;-0.064145;-0.128764;0.068865;-0.532959;0.658203;0.013916;0.541957;-0.556372;-0.526068;-0.346389
28932;9.569723;-1.646121;-1.165381;-0.083448;-0.149155;0.092447;-0.534912;0.650635;0.016357;0.541194;-0.557661;-0.526033;-0.345562
28933;9.668906;-1.451418;-1.060219;-0.139399;-0.174441;0.126931;-0.542480;0.667725;0.023926;0.540151;-0.559374;-0.525844;-0.344712
28934;9.672813;-1.227089;-1.084954;-0.179400;-0.194075;0.177942;-0.531982;0.662354;0.023926;0.538919;-0.561643;-0.525293;-0.343788
28935;9.668838;-1.049239;-0.989403;-0.189537;-0.217872;0.221724;-0.529297;0.665771;0.023682;0.537705;-0.564166;-0.524643;-0.342547
28936;9.639625;-0.791174;-1.033374;-0.179177;-0.258438;0.268059;-0.533447;0.663330;0.030029;0.536510;-0.566943;-0.523972;-0.340860
28937;9.696928;-0.607274;-0.898566;-0.159942;-0.311560;0.320682;-0.523682;0.674561;0.028564;0.535286;-0.569980;-0.523374;-0.338631
28938;9.788903;-0.432473;-0.602481;-0.160500;-0.376579;0.387600;-0.525391;0.677490;0.040771;0.533997;-0.573511;-0.522676;-0.335770
28939;10.140673;-0.003643;0.018448;-0.167584;-0.476846;0.505018;-0.519043;0.667236;0.045410;0.532497;-0.577869;-0.521831;-0.331975
28940;10.587200;1.074964;1.015295;-0.187199;-0.636782;0.690035;-0.505371;0.684082;0.057861;0.530709;-0.583443;-0.520813;-0.326643
28941;10.805866;2.681501;1.884497;-0.231455;-0.776735;0.879694;-0.492432;0.685791;0.058594;0.528553;-0.590462;-0.519235;-0.319971
28942;11.294752;4.536450;2.142611;-0.268160;-0.892096;1.113454;-0.480957;0.699707;0.076904;0.526328;-0.598822;-0.516885;-0.311804
28943;11.364772;5.734374;1.129530;-0.355942;-0.961700;1.377710;-0.461670;0.709961;0.082275;0.523908;-0.608840;-0.513147;-0.302513
28944;10.880647;4.260146;-1.330382;-0.697938;-0.943055;1.668901;-0.445801;0.720215;0.093750;0.520477;-0.621369;-0.506860;-0.293423
28945;11.222004;1.078631;-2.939626;-1.028052;-0.935516;1.860495;-0.419189;0.730713;0.110107;0.515677;-0.635869;-0.498600;-0.284860
28946;13.054890;-2.306929;-4.720816;-1.051638;-0.981518;1.807279;-0.395508;0.737305;0.131592;0.510266;-0.650104;-0.490591;-0.276248
28947;12.711438;-5.040912;-5.061102;-1.031592;-1.065433;1.762041;-0.377686;0.745117;0.160400;0.504318;-0.664012;-0.483068;-0.267200
28948;11.407268;-5.640111;-3.995390;-0.847639;-1.276445;1.728436;-0.345215;0.760254;0.177979;0.498217;-0.677268;-0.476820;-0.256381
28949;9.835648;-7.400644;-4.581626;-0.787315;-1.311613;1.503419;-0.329590;0.756836;0.186768;0.491679;-0.689267;-0.471896;-0.245919
28950;8.148566;-8.524803;-5.522635;-0.485941;-1.142352;1.156122;-0.316406;0.769775;0.208984;0.486755;-0.698017;-0.468899;-0.236592
28951;7.189699;-9.069457;-6.212694;0.015787;-0.877427;0.826301;-0.303955;0.778320;0.210693;0.485000;-0.702895;-0.467560;-0.228259
28952;6.711888;-7.662911;-6.152475;0.295285;-0.555134;0.519266;-0.291016;0.777832;0.202148;0.485541;-0.704767;-0.467233;-0.221918
28953;6.351555;-5.136309;-5.715941;0.201212;-0.046479;0.095527;-0.292969;0.778320;0.204590;0.486760;-0.704360;-0.467234;-0.220531
28954;5.655369;-4.193297;-5.127662;-0.099320;0.545099;-0.366634;-0.296387;0.781006;0.203369;0.487630;-0.702297;-0.466947;-0.225737
28955;4.759550;-4.426404;-4.842130;-0.329394;1.098078;-0.765142;-0.322510;0.772705;0.201660;0.488513;-0.698544;-0.466258;-0.236631
28956;4.432535;-4.812618;-4.132655;-0.356099;1.489116;-1.096753;-0.333740;0.772949;0.187988;0.490016;-0.692641;-0.465800;-0.251324
28957;4.676655;-5.060080;-3.331420;-0.308822;1.730621;-1.420422;-0.354492;0.755615;0.191406;0.491978;-0.684523;-0.466308;-0.268220
28958;5.137189;-4.766186;-2.806940;-0.247471;1.884479;-1.741264;-0.390137;0.754883;0.187500;0.493896;-0.674374;-0.467818;-0.287110
28959;5.836988;-4.128958;-2.721920;-0.217762;1.986084;-2.019973;-0.416260;0.732910;0.172852;0.495421;-0.662461;-0.470239;-0.307537
28960;6.549952;-3.484322;-2.825252;-0.192422;2.033269;-2.242834;-0.458008;0.714600;0.156250;0.496428;-0.649011;-0.473535;-0.328799
28961;7.174593;-3.015073;-3.140518;-0.118829;2.035724;-2.411225;-0.485352;0.696533;0.147949;0.497066;-0.634075;-0.477648;-0.350324
28962;7.584876;-2.634689;-3.381523;0.015256;2.013936;-2.532308;-0.521484;0.676758;0.132324;0.497566;-0.617801;-0.482472;-0.371446
28963;7.867613;-2.153474;-3.200151;0.166813;1.979429;-2.642471;-0.545166;0.659424;0.108398;0.497969;-0.600111;-0.488099;-0.391987
28964;8.025097;-1.983965;-2.472080;0.297706;1.898437;-2.712596;-0.583984;0.628174;0.093018;0.498181;-0.581387;-0.494573;-0.411343
28965;8.341286;-1.817176;-1.750725;0.376613;1.764102;-2.715291;-0.611572;0.605957;0.075684;0.497724;-0.562382;-0.501411;-0.429633
28966;8.680952;-1.355357;-0.997903;0.398559;1.616210;-2.602607;-0.644531;0.578125;0.051514;0.496785;-0.543953;-0.508050;-0.446324
28967;9.130409;-0.809160;-0.409810;0.360120;1.437993;-2.374583;-0.661621;0.550293;0.032715;0.495469;-0.526930;-0.513964;-0.461190
28968;9.510667;-0.047634;-0.420256;0.293391;1.285975;-2.112117;-0.674561;0.534912;0.023438;0.493994;-0.511637;-0.518867;-0.474315
28969;9.751665;1.079245;-0.358705;0.322110;1.104899;-1.793312;-0.697998;0.516113;-0.000977;0.492917;-0.498254;-0.523059;-0.484959
28970;9.523874;2.028081;0.272665;0.360964;0.882636;-1.473652;-0.713379;0.495361;-0.005859;0.492252;-0.486778;-0.526889;-0.493076
28971;9.406905;1.807478;0.733517;0.331490;0.664241;-1.107015;-0.719971;0.477051;-0.015625;0.491822;-0.477903;-0.529880;-0.498946
28972;9.224162;1.751595;0.966605;0.289914;0.418211;-0.686985;-0.725830;0.467285;-0.032227;0.491837;-0.472009;-0.532004;-0.502271
28973;8.993698;1.778042;0.935021;0.247747;0.168263;-0.202197;-0.725830;0.474121;-0.034668;0.492668;-0.469381;-0.533076;-0.502782
28974;8.808394;0.998147;0.844698;0.236136;-0.058929;0.284254;-0.720703;0.476074;-0.030762;0.494499;-0.469985;-0.533109;-0.500379
28975;8.808334;-0.184315;0.687875;0.325319;-0.306092;0.731674;-0.718262;0.482178;-0.034180;0.497405;-0.473255;-0.532768;-0.494749
28976;8.736650;-1.169718;0.405515;0.423344;-0.517924;1.126191;-0.717285;0.489746;-0.031006;0.501355;-0.478650;-0.532106;-0.486210
28977;8.651313;-2.240851;-0.081367;0.478304;-0.691606;1.506121;-0.699707;0.512695;-0.020752;0.506175;-0.486078;-0.530800;-0.475149
28978;9.000459;-3.518528;-2.145300;0.428197;-0.694990;1.867843;-0.680420;0.530273;-0.020020;0.512083;-0.495291;-0.527716;-0.462574
28979;12.525349;-2.342438;-5.212647;0.629661;-0.438401;1.293272;-0.676270;0.541504;-0.027344;0.517659;-0.499977;-0.526580;-0.452510
28980;16.127547;4.193148;-3.911877;1.100047;-0.156834;-0.165200;-0.684570;0.539795;-0.037842;0.520887;-0.495036;-0.532028;-0.447843
28981;18.721336;-0.430965;-3.442564;1.124472;-0.412673;0.587758;-0.673340;0.550781;-0.049072;0.525827;-0.494208;-0.535521;-0.438727
28982;9.205975;-2.458285;-8.185412;0.898095;-0.958928;1.200073;-0.666260;0.561279;-0.038818;0.529600;-0.499046;-0.537937;-0.425558
28983;2.254641;-5.627443;-5.249217;1.319530;-1.436907;0.954576;-0.666016;0.568604;-0.040527;0.531916;-0.502499;-0.544890;-0.409456
28984;8.229661;-4.325298;-2.602880;0.914206;-0.626697;0.928820;-0.646240;0.581055;-0.042236;0.536011;-0.504703;-0.546864;-0.398632
28985;12.485651;-0.342545;-1.040122;0.018064;-0.011348;1.050702;-0.639160;0.590576;-0.040039;0.539516;-0.509426;-0.542526;-0.393794
28986;10.508300;0.567572;-0.035698;-0.985561;0.260311;1.194068;-0.629639;0.599121;-0.025879;0.540373;-0.518356;-0.533013;-0.393956
28987;8.568490;-1.648460;-0.623638;-1.650658;0.372035;1.331677;-0.605469;0.620850;-0.012451;0.539143;-0.530406;-0.520113;-0.396834
28988;8.334560;-4.676529;-1.643980;-1.555178;0.342602;1.282565;-0.593994;0.627930;0.003906;0.537901;-0.541802;-0.507686;-0.399210
28989;8.664005;-6.604229;-1.679621;-0.727802;0.132716;0.969965;-0.587402;0.634521;0.003662;0.538348;-0.548746;-0.500283;-0.398468
28990;9.004297;-4.854951;-0.956323;0.240465;-0.257814;0.735284;-0.579834;0.644531;-0.009521;0.540795;-0.551595;-0.498879;-0.392942
28991;9.064949;-2.398702;-0.028142;0.602404;-0.394453;0.648179;-0.571289;0.644287;0.011230;0.544060;-0.552850;-0.499624;-0.385657
28992;9.823966;-1.045024;0.210264;0.339598;-0.279851;0.660488;-0.575439;0.653809;-0.005615;0.546534;-0.555001;-0.498950;-0.379900
28993;10.346739;-0.924136;-0.245233;-0.314923;-0.060575;0.821878;-0.564453;0.662842;0.007324;0.547411;-0.560042;-0.494416;-0.377155
28994;9.292325;-2.483020;-0.988436;-0.828968;0.084576;0.946430;-0.551758;0.675293;0.017090;0.546817;-0.567468;-0.486980;-0.376593
28995;8.429372;-4.329116;-1.674085;-0.835864;0.082857;0.896957;-0.537598;0.674072;0.014648;0.545973;-0.574677;-0.479705;-0.376223
28996;8.237616;-5.496294;-1.875353;-0.433332;-0.024523;0.707721;-0.530518;0.690430;0.019775;0.546012;-0.579571;-0.475052;-0.374558
28997;8.719219;-5.036672;-1.723603;0.070435;-0.182341;0.556082;-0.529053;0.696533;0.030273;0.547367;-0.582055;-0.473402;-0.370799
28998;9.221037;-3.581643;-1.513551;0.243617;-0.240409;0.519736;-0.520752;0.693359;0.025391;0.549191;-0.583781;-0.472716;-0.366235
28999;9.289823;-2.537070;-1.630737;-0.016707;-0.151242;0.564502;-0.512451;0.695557;0.021240;0.550227;-0.586582;-0.470599;-0.362916
29000;9.126040;-2.546505;-1.874645;-0.436172;-0.012317;0.629945;-0.506104;0.700439;0.037598;0.549942;-0.591119;-0.466244;-0.361604
29001;8.877287;-3.375216;-2.127674;-0.674414;0.046145;0.657382;-0.492188;0.708984;0.040527;0.548754;-0.596659;-0.460739;-0.361367
29002;8.777871;-4.380844;-2.162430;-0.555701;-0.003989;0.605174;-0.498535;0.710693;0.045410;0.547784;-0.601570;-0.456062;-0.360630
29003;8.889667;-4.342778;-1.901520;-0.235592;-0.103055;0.538943;-0.488525;0.718262;0.050293;0.547818;-0.605042;-0.453114;-0.358479
29004;9.071171;-3.443103;-1.536686;-0.009082;-0.175962;0.531647;-0.487305;0.715576;0.057617;0.548686;-0.607658;-0.451203;-0.355123
29005;9.228859;-2.500986;-1.364572;-0.038060;-0.180114;0.561541;-0.474609;0.719727;0.051270;0.549460;-0.610521;-0.449055;-0.351721
29006;9.345116;-1.989179;-1.251251;-0.164514;-0.182711;0.648076;-0.457275;0.729248;0.053955;0.549826;-0.614270;-0.446106;-0.348357
29007;9.415070;-1.720937;-1.174495;-0.285698;-0.171552;0.752473;-0.451660;0.737549;0.052979;0.549896;-0.618904;-0.442207;-0.345000
29008;9.431282;-1.326499;-0.935215;-0.325323;-0.195884;0.851077;-0.445801;0.736816;0.065430;0.549925;-0.624118;-0.437775;-0.341194
29009;9.667574;-0.689390;-0.385336;-0.280275;-0.260473;0.979005;-0.429443;0.747559;0.070801;0.550270;-0.629737;-0.433056;-0.336299
29010;9.912474;-0.291906;0.225737;-0.199958;-0.350697;1.091603;-0.422119;0.751709;0.073975;0.550980;-0.635592;-0.428348;-0.330095
29011;9.844712;0.009383;1.059413;-0.094067;-0.462744;1.226734;-0.404053;0.760010;0.077148;0.552159;-0.641682;-0.423677;-0.322277
29012;9.802426;1.013138;1.622502;0.061888;-0.613385;1.360885;-0.385010;0.772217;0.085938;0.553926;-0.647841;-0.419338;-0.312447
29013;9.761266;-0.542534;1.779501;0.195439;-0.790562;1.456879;-0.368164;0.774902;0.075195;0.555944;-0.654071;-0.415557;-0.300715
29014;10.965436;-2.462563;0.794892;0.177166;-0.917583;1.642608;-0.340088;0.785400;0.085449;0.557771;-0.661191;-0.411227;-0.287421
29015;11.240730;-2.595129;-0.894078;-0.129002;-0.933697;1.857875;-0.317871;0.792236;0.094482;0.558215;-0.670334;-0.404915;-0.274029
29016;10.994595;-1.919483;-3.099197;-0.433163;-1.001421;1.995853;-0.295654;0.797119;0.103027;0.556860;-0.681291;-0.397307;-0.260570
29017;10.905285;-2.608368;-3.189961;-0.429193;-1.140272;2.079511;-0.274658;0.808594;0.119873;0.555037;-0.692541;-0.389732;-0.245824
29018;12.722287;-2.387182;-2.520138;-0.371240;-1.329385;2.162104;-0.239746;0.813721;0.125732;0.552862;-0.703882;-0.382500;-0.229319
29019;15.155481;0.211251;-2.668727;-0.535724;-1.522064;2.272875;-0.205078;0.813965;0.126465;0.549046;-0.716349;-0.375005;-0.211574
29020;17.139942;4.200588;-2.873144;-0.998303;-1.599121;2.459404;-0.162842;0.828857;0.150391;0.542227;-0.731215;-0.365706;-0.193840
29021;18.374246;8.994390;-3.862356;-1.626384;-1.401511;2.555771;-0.131348;0.822510;0.184326;0.531946;-0.748365;-0.353639;-0.178667
29022;14.989842;4.878111;-0.987993;-2.186650;-1.122144;2.584300;-0.092773;0.812988;0.209229;0.518595;-0.767044;-0.339024;-0.166631
29023;11.279265;-1.733008;-1.270193;-2.027347;-1.311901;2.549255;-0.057129;0.810547;0.232910;0.505230;-0.784527;-0.325372;-0.152950
29024;10.519911;-8.728788;-2.825287;-1.938815;-1.437217;2.405536;-0.019775;0.806885;0.250244;0.491506;-0.800753;-0.313017;-0.138699
29025;10.556323;-12.314080;-6.239576;-1.617064;-1.445469;2.190272;0.018799;0.786133;0.275146;0.479306;-0.814521;-0.302260;-0.124341
29026;9.205790;-12.194044;-8.384027;-1.015738;-1.614546;1.969777;0.044434;0.773682;0.291992;0.470257;-0.825025;-0.294107;-0.108133
29027;7.074570;-10.024649;-8.276751;-0.768427;-1.419715;1.635958;0.072998;0.767334;0.297119;0.462879;-0.833200;-0.287574;-0.093919
29028;5.181348;-8.867142;-7.275384;-0.777124;-0.778853;1.186514;0.086914;0.752197;0.303955;0.456501;-0.839602;-0.281603;-0.085881
29029;4.155935;-8.863986;-5.645666;-0.721803;-0.307057;0.485674;0.098633;0.741211;0.308350;0.451060;-0.843709;-0.278746;-0.083667
29030;3.075242;-9.825811;-5.471559;-0.665596;0.195404;-0.388059;0.089355;0.745850;0.303711;0.446551;-0.845182;-0.280164;-0.088136
29031;2.257966;-9.807344;-5.719981;-0.598248;0.694483;-1.091912;0.074463;0.730713;0.312012;0.443123;-0.844317;-0.284701;-0.098573
29032;1.398123;-9.660714;-5.912716;-0.366489;1.170502;-1.645624;0.050293;0.727051;0.330566;0.441902;-0.840709;-0.291503;-0.113832
29033;0.519447;-9.627152;-5.306464;0.007598;1.550977;-2.134347;0.019531;0.722412;0.314941;0.443587;-0.833851;-0.300568;-0.132600
29034;0.196040;-9.813474;-4.523576;0.352375;1.747542;-2.623183;-0.019531;0.728760;0.316895;0.447353;-0.823786;-0.312506;-0.153594
29035;-0.135088;-9.572768;-4.375475;0.675702;1.873057;-3.107537;-0.054932;0.728271;0.306396;0.452673;-0.810421;-0.327457;-0.176285
29036;-0.790309;-8.586268;-4.210693;1.096030;1.941620;-3.524569;-0.105713;0.724854;0.289307;0.459913;-0.793364;-0.345232;-0.199672
29037;-1.632333;-7.161629;-3.843552;1.443200;1.975531;-3.935224;-0.179688;0.722168;0.257812;0.468235;-0.772674;-0.365708;-0.223583
29038;-1.773068;-5.832632;-3.389350;1.608221;2.046277;-4.383840;-0.234131;0.713379;0.240479;0.476221;-0.748574;-0.388507;-0.248821
29039;-1.020163;-4.815466;-3.312636;1.486680;2.185744;-4.784276;-0.282227;0.694824;0.215820;0.482140;-0.721927;-0.412254;-0.276421
29040;0.181997;-4.474113;-2.985039;1.146226;2.304857;-5.105982;-0.357910;0.689697;0.185791;0.484628;-0.693706;-0.435788;-0.306590
29041;2.202447;-4.852857;-2.550882;0.631488;2.446691;-5.306760;-0.415283;0.652588;0.169189;0.483007;-0.664857;-0.457585;-0.339536
29042;4.665164;-5.707560;-3.578354;0.103960;2.695622;-5.262416;-0.472412;0.606445;0.138672;0.478371;-0.635996;-0.475545;-0.374869
29043;6.826260;-3.950538;-4.729078;-0.033478;2.920614;-5.117335;-0.523682;0.565430;0.128906;0.473191;-0.606020;-0.490268;-0.410448
29044;8.608640;-2.285007;-3.372718;0.096329;3.140254;-4.927800;-0.575439;0.521973;0.088135;0.469079;-0.574108;-0.502451;-0.444869
29045;9.966891;-1.390060;-1.048978;0.339049;3.045545;-4.682586;-0.609863;0.487305;0.064453;0.465573;-0.541321;-0.513596;-0.475849
29046;11.487611;-0.391506;-1.418443;1.021266;2.490111;-4.151716;-0.646484;0.436768;0.041748;0.463969;-0.509312;-0.526215;-0.498429
29047;11.137453;0.061820;1.547724;1.501149;1.829131;-3.373509;-0.649170;0.403320;0.001953;0.464067;-0.480872;-0.539328;-0.512376
29048;11.358805;3.532641;4.543758;1.147785;1.246356;-2.308593;-0.677734;0.375977;-0.025391;0.464270;-0.460653;-0.548446;-0.521018
29049;11.830796;7.656720;4.660819;0.704670;0.753294;-0.929293;-0.677979;0.365234;-0.041748;0.466338;-0.450432;-0.552052;-0.524289
29050;10.239237;2.994767;3.692274;0.619119;0.188413;0.455261;-0.665771;0.372314;-0.043945;0.471488;-0.449344;-0.552223;-0.520422
29051;8.336744;-3.588556;1.407886;0.771805;-0.436328;1.539186;-0.657227;0.383545;-0.040771;0.478971;-0.455295;-0.551371;-0.509198
29052;6.978043;-7.216673;-2.629829;0.788406;-0.775220;2.233845;-0.645020;0.415527;-0.039551;0.487756;-0.465662;-0.549123;-0.493676
29053;8.607993;-5.626223;-8.515493;0.782304;-0.747047;2.507155;-0.620117;0.444092;-0.028320;0.497547;-0.476966;-0.545420;-0.476935
29054;13.880654;5.630823;-12.382381;0.752075;-0.597866;1.070697;-0.617432;0.457764;-0.026367;0.502032;-0.481111;-0.546527;-0.466695
29055;20.157879;0.156002;-1.792272;2.117579;-0.991558;0.606279;-0.606445;0.460693;-0.040771;0.508257;-0.478822;-0.556330;-0.450446
29056;13.206299;-3.318972;-7.432023;2.178334;-1.641131;1.502052;-0.596680;0.469238;-0.033691;0.514803;-0.482607;-0.565239;-0.427286
29057;6.467897;-4.909121;-1.790667;2.487709;-1.633790;1.391241;-0.588379;0.480957;-0.040527;0.521869;-0.484172;-0.575275;-0.402850
29058;7.565527;-10.574642;-2.682525;1.861307;-1.337054;1.811514;-0.565674;0.510986;-0.046143;0.528892;-0.489154;-0.579840;-0.380507
29059;6.966858;-6.862694;-1.756883;1.116377;-0.847752;2.233985;-0.552002;0.526123;-0.052002;0.536302;-0.497645;-0.577859;-0.361675
29060;7.128954;-5.363508;-1.066690;-0.054707;-0.249263;2.056972;-0.530762;0.553955;-0.046875;0.540994;-0.508519;-0.570183;-0.351603
29061;8.550480;-4.908357;-1.128387;-1.127387;0.461927;1.581027;-0.520508;0.558350;-0.041260;0.542970;-0.519737;-0.558012;-0.351681
29062;6.904229;-7.207023;-3.657708;-1.264740;0.431407;1.205347;-0.509033;0.572510;-0.031250;0.542971;-0.529788;-0.547064;-0.353875
29063;7.555410;-8.333583;-5.359351;-0.287433;-0.091667;0.984401;-0.494629;0.579834;-0.029541;0.544171;-0.535874;-0.542265;-0.350237
29064;8.392355;-7.676034;-4.865105;1.022303;-0.621392;0.940282;-0.484863;0.575928;-0.026367;0.548633;-0.537302;-0.543834;-0.338456
29065;9.184341;-5.162073;-3.128351;1.637772;-0.761635;0.877692;-0.471191;0.588623;-0.042969;0.554918;-0.535908;-0.547947;-0.323455
29066;9.598258;-2.035667;-1.544794;1.097012;-0.489608;0.921865;-0.462891;0.601807;-0.047852;0.560026;-0.536364;-0.549029;-0.311853
29067;8.934879;-1.519042;-0.689462;-0.121464;0.000287;0.983375;-0.448242;0.588623;-0.046631;0.562022;-0.541454;-0.544319;-0.307694
29068;8.600871;-3.337528;-1.334838;-1.028208;0.321002;0.966012;-0.448730;0.626465;-0.035645;0.561276;-0.549833;-0.535799;-0.309148
29069;8.192795;-6.257801;-2.661967;-1.010995;0.349847;0.770534;-0.434570;0.613525;-0.025391;0.560157;-0.557112;-0.528014;-0.311532
29070;8.087777;-7.022060;-3.505991;-0.185634;0.121251;0.601715;-0.426270;0.631348;-0.032959;0.561384;-0.560348;-0.524186;-0.309981
29071;8.710914;-5.093317;-3.102553;0.720876;-0.142320;0.488850;-0.425049;0.623047;-0.036865;0.565378;-0.559507;-0.524442;-0.303745
29072;9.314443;-2.400614;-2.066809;0.975443;-0.246423;0.447620;-0.425049;0.625732;-0.051025;0.569959;-0.557510;-0.525991;-0.296078
29073;9.447777;-0.652297;-1.416464;0.548946;-0.172221;0.568006;-0.415527;0.629883;-0.054443;0.573142;-0.557848;-0.525541;-0.290034
29074;9.301054;-0.581626;-1.392656;-0.185955;0.014067;0.775633;-0.403809;0.638916;-0.053223;0.574199;-0.562131;-0.521434;-0.287074
29075;9.191314;-2.046587;-1.954595;-0.687050;0.102051;0.929979;-0.392334;0.646973;-0.043213;0.573618;-0.569233;-0.514946;-0.285950
29076;9.088307;-2.986262;-2.216464;-0.717541;0.065020;0.994682;-0.390625;0.659180;-0.028564;0.572828;-0.576790;-0.508205;-0.284445
29077;8.739388;-3.125092;-1.509359;-0.459365;-0.034837;0.973959;-0.372314;0.659424;-0.029541;0.572751;-0.583211;-0.502605;-0.281440
29078;8.737509;-2.628930;-1.081794;-0.217562;-0.118230;0.939438;-0.366699;0.665039;-0.029297;0.573376;-0.588486;-0.498101;-0.277164
29079;9.596133;-1.875120;-0.719874;-0.167899;-0.133745;1.028537;-0.345459;0.666748;-0.026611;0.574342;-0.593888;-0.493311;-0.272163
29080;10.274178;-1.235044;-0.519596;-0.331486;-0.153669;1.181065;-0.342529;0.673096;-0.018555;0.574707;-0.600691;-0.487442;-0.266987
29081;10.425965;0.063763;-0.248528;-0.444214;-0.226626;1.362087;-0.316406;0.686768;-0.014160;0.574540;-0.608856;-0.480699;-0.261011
29082;9.547636;2.547481;0.742929;-0.234207;-0.438416;1.512880;-0.308594;0.699219;-0.008789;0.574822;-0.616983;-0.474577;-0.252366
29083;9.290133;0.782243;1.387726;0.208437;-0.751274;1.539624;-0.283203;0.698730;-0.008545;0.576085;-0.623634;-0.470649;-0.240200
29084;12.275046;-0.688156;0.936608;0.300367;-0.936252;1.793774;-0.261719;0.706543;-0.008545;0.577465;-0.631056;-0.466344;-0.225447
29085;13.794464;0.107320;0.354377;-0.154653;-1.032219;2.168508;-0.241699;0.715820;0.002441;0.576581;-0.642084;-0.459503;-0.210092
29086;12.770808;0.088608;0.220226;-0.685016;-1.128479;2.376690;-0.205322;0.719971;0.005859;0.572591;-0.656331;-0.450861;-0.195175
29087;12.665294;-1.128197;0.318059;-0.833632;-1.302397;2.490616;-0.175049;0.732910;0.013184;0.567002;-0.671633;-0.441922;-0.179229
29088;15.795694;1.492400;-1.957912;-1.027664;-1.584849;2.690824;-0.144287;0.737305;0.044922;0.559206;-0.688556;-0.432597;-0.161367
29089;19.099104;7.596246;-2.445305;-1.606237;-1.676573;3.003526;-0.093750;0.735107;0.062256;0.547692;-0.708819;-0.420738;-0.143485
29090;19.171332;9.088455;-3.633352;-2.362544;-1.409688;3.123744;-0.056885;0.736084;0.086670;0.532191;-0.731852;-0.405569;-0.129147
29091;13.906223;3.778112;-2.190881;-3.058889;-1.177864;3.155417;-0.009766;0.739014;0.118652;0.512563;-0.756860;-0.387880;-0.118287
29092;9.575545;-3.154185;-3.181912;-3.012029;-1.285025;2.994164;0.033936;0.728516;0.167480;0.492011;-0.780188;-0.371152;-0.107136
29093;8.805630;-8.864590;-7.125358;-2.997602;-1.268319;2.586199;0.065918;0.707031;0.201416;0.470614;-0.801177;-0.356531;-0.097587
29094;9.791298;-11.648046;-10.082775;-2.700947;-1.232535;2.255855;0.102051;0.702637;0.213135;0.450529;-0.819124;-0.343821;-0.088583
29095;8.877553;-12.170772;-11.843529;-2.105952;-1.115969;1.920654;0.135498;0.699463;0.233643;0.434230;-0.833128;-0.333116;-0.079854
29096;5.974330;-11.728360;-11.495488;-1.412969;-0.943010;1.694323;0.148926;0.690674;0.242432;0.422844;-0.843442;-0.323640;-0.071175
29097;4.190870;-10.817578;-9.852983;-0.928685;-0.662158;1.420710;0.173340;0.676270;0.256592;0.415325;-0.850878;-0.315283;-0.064100
29098;3.090777;-10.022644;-7.987089;-0.552976;-0.206943;0.664459;0.184326;0.676025;0.264160;0.411204;-0.854661;-0.310868;-0.061869
29099;1.753418;-10.125367;-7.670159;-0.317269;0.471769;-0.219716;0.180664;0.664795;0.270508;0.410047;-0.854960;-0.310533;-0.066887
29100;0.942831;-9.925991;-7.531860;-0.170540;1.073379;-0.845112;0.174805;0.681152;0.275391;0.411109;-0.852738;-0.312655;-0.077941
29101;0.062614;-9.009569;-7.536582;0.165587;1.622014;-1.302116;0.146973;0.681396;0.286621;0.415600;-0.847631;-0.316297;-0.093562
29102;-0.988781;-8.143318;-6.644837;0.506793;2.020343;-1.794194;0.118408;0.692139;0.286621;0.422990;-0.839386;-0.322176;-0.112756
29103;-1.340924;-7.328102;-5.580246;0.549431;2.286867;-2.298376;0.087402;0.700195;0.286865;0.430644;-0.828851;-0.330482;-0.135398
29104;-1.276418;-6.852797;-4.863705;0.555245;2.491473;-2.744330;0.035889;0.712646;0.275146;0.438021;-0.816124;-0.340862;-0.160912
29105;-1.808854;-6.754957;-4.609717;0.728800;2.668807;-3.157348;-0.011963;0.706543;0.273193;0.446040;-0.800457;-0.353268;-0.188463
29106;-2.668892;-6.622284;-4.375543;1.101741;2.775198;-3.562579;-0.071533;0.720947;0.250977;0.455612;-0.780958;-0.368092;-0.216866
29107;-3.376320;-6.430615;-4.125254;1.615853;2.785395;-3.950888;-0.120850;0.725342;0.240723;0.467101;-0.757012;-0.385734;-0.244865
29108;-3.711609;-5.876038;-3.936040;1.954009;2.779384;-4.381990;-0.185791;0.721436;0.202637;0.478901;-0.728892;-0.406058;-0.272923
29109;-3.131368;-4.756405;-3.693356;1.922357;2.838052;-4.840295;-0.247559;0.707031;0.184082;0.488569;-0.697552;-0.427941;-0.302636
29110;-0.932814;-4.530299;-3.190311;1.544060;2.903818;-5.257190;-0.324707;0.691406;0.148438;0.493975;-0.664321;-0.449942;-0.334990
29111;2.794965;-5.533986;-3.573063;0.738910;3.119167;-5.490772;-0.393311;0.657715;0.123047;0.493731;-0.631112;-0.468880;-0.371590
29112;6.244822;-3.615436;-4.108702;0.044564;3.426175;-5.343275;-0.455811;0.633057;0.104736;0.490113;-0.598619;-0.482325;-0.410860
29113;8.043745;-2.356182;-3.058444;-0.159869;3.455503;-5.218439;-0.511475;0.587891;0.079102;0.484674;-0.565712;-0.493007;-0.449450
29114;10.017299;-2.344760;-3.168729;0.046048;3.419980;-4.984515;-0.557129;0.555664;0.045166;0.479667;-0.531580;-0.502210;-0.484899
29115;12.820416;-1.392705;-2.831038;0.994316;2.794593;-4.477688;-0.592773;0.496338;0.007568;0.477207;-0.497098;-0.514367;-0.510485
29116;12.624415;-3.220268;-0.665755;1.886783;1.569115;-3.692379;-0.619385;0.467773;-0.015869;0.475734;-0.466804;-0.531080;-0.523188
29117;10.961422;0.680785;2.370871;1.829928;0.802902;-2.579603;-0.641113;0.447510;-0.038086;0.475006;-0.444508;-0.545699;-0.528200
29118;11.250063;9.358500;5.797885;1.324099;0.281338;-0.771408;-0.645752;0.437012;-0.050049;0.477775;-0.434531;-0.553207;-0.526190
29119;9.942645;4.698516;3.985068;0.607653;-0.206220;1.080176;-0.643066;0.445801;-0.054688;0.483748;-0.438021;-0.552721;-0.518291
29120;7.205944;-2.573847;-0.048830;0.392293;-0.898368;2.452511;-0.613037;0.474121;-0.048340;0.491524;-0.451559;-0.548912;-0.503184
29121;12.382835;-1.816867;-13.607238;0.036253;-0.984259;2.633618;-0.595215;0.500244;-0.031982;0.498073;-0.467511;-0.542997;-0.488376
29122;17.466186;13.949966;-11.207624;-0.652422;-0.361341;0.880927;-0.585205;0.506348;-0.024414;0.497474;-0.475699;-0.538374;-0.486193
29123;18.006623;4.714152;-0.001688;-0.628280;-0.211838;1.521119;-0.584229;0.529785;-0.023682;0.500163;-0.485978;-0.530637;-0.481754
29124;11.055511;-6.782655;-1.895862;0.112742;-1.012541;1.731229;-0.563721;0.545166;-0.008545;0.503033;-0.497197;-0.528234;-0.469810
29125;9.691400;-14.870998;1.307819;1.167286;-1.542441;1.439263;-0.547363;0.556885;-0.004395;0.506624;-0.504616;-0.533212;-0.452084
29126;8.044105;-16.815782;-3.686903;2.153583;-1.840702;1.517313;-0.535645;0.571289;-0.013672;0.513050;-0.509060;-0.542531;-0.428133
29127;6.757157;-5.394812;-2.281731;2.715622;-1.753106;1.986541;-0.516602;0.587402;-0.016113;0.523492;-0.512472;-0.551030;-0.399619
29128;7.812092;1.699520;0.084462;1.206609;-0.773095;1.979475;-0.497803;0.601562;-0.028564;0.531595;-0.518807;-0.549870;-0.381953
29129;7.847355;3.067282;-1.639222;-1.106252;0.544694;1.497224;-0.484375;0.621338;-0.008301;0.534018;-0.528810;-0.537407;-0.382594
29130;7.137937;-3.103439;-3.389993;-1.870647;0.456885;1.399538;-0.474609;0.632324;-0.003174;0.532189;-0.541884;-0.523153;-0.386584
29131;7.608054;-9.488426;-3.709574;-1.216464;0.096766;1.226617;-0.457275;0.637207;0.014893;0.531026;-0.552301;-0.513232;-0.386740
29132;7.769270;-12.635774;-3.850197;0.548189;-0.494263;0.933325;-0.444580;0.657471;0.004395;0.534431;-0.555475;-0.512891;-0.377855
29133;8.238999;-8.249590;-2.304600;2.177005;-0.937972;0.694981;-0.438721;0.656250;-0.008057;0.542590;-0.551628;-0.520628;-0.360901
29134;10.076856;-2.379564;-1.317336;2.209824;-0.886163;0.634540;-0.437500;0.655273;-0.030273;0.550714;-0.546980;-0.528285;-0.344153
29135;10.334431;1.238241;-1.161171;0.940165;-0.451120;0.806908;-0.436035;0.666992;-0.030273;0.555309;-0.547521;-0.529373;-0.334093
29136;9.185044;0.426490;-1.213349;-0.537040;-0.023910;1.076459;-0.414062;0.675781;-0.029785;0.555733;-0.554836;-0.523079;-0.331218
29137;8.435061;-3.854992;-1.730559;-1.236625;0.173522;1.097520;-0.397461;0.679443;-0.007812;0.553756;-0.564858;-0.513766;-0.332165
29138;8.198985;-7.230881;-2.536866;-0.957058;0.107315;0.901286;-0.386963;0.689453;-0.000488;0.552180;-0.572846;-0.506376;-0.332456
29139;8.173011;-7.732905;-3.085307;-0.033347;-0.176302;0.729106;-0.384521;0.682861;0.001221;0.553295;-0.576597;-0.503636;-0.328255
29140;8.661504;-5.036802;-2.996199;0.709083;-0.393830;0.614194;-0.381592;0.691895;-0.012695;0.556719;-0.577005;-0.504455;-0.320396
29141;9.037766;-2.155532;-2.593120;0.788982;-0.403051;0.587919;-0.360107;0.700195;-0.015137;0.560375;-0.576913;-0.505620;-0.312250
29142;9.085225;-1.278402;-2.073751;0.430498;-0.266764;0.631136;-0.359131;0.706543;-0.023926;0.562956;-0.578285;-0.504977;-0.306046
29143;9.112129;-1.944013;-1.898562;-0.012385;-0.117177;0.692610;-0.350830;0.704590;-0.018555;0.564165;-0.581590;-0.502185;-0.302128
29144;9.181007;-2.749865;-2.116008;-0.216143;-0.090136;0.802051;-0.340088;0.711426;-0.012695;0.564749;-0.586218;-0.498201;-0.298668
29145;8.956437;-2.849212;-2.142417;-0.216356;-0.134999;0.885760;-0.338135;0.716064;-0.012207;0.565320;-0.591276;-0.493993;-0.294580
29146;8.682415;-2.735485;-2.299013;-0.169324;-0.185984;0.895943;-0.326172;0.705566;-0.006592;0.565902;-0.596243;-0.490060;-0.289983
29147;8.580208;-2.776195;-2.195386;-0.172487;-0.186001;0.944175;-0.311523;0.717773;-0.006348;0.566546;-0.601385;-0.485849;-0.285153
29148;9.009579;-2.445597;-1.945863;-0.272260;-0.177104;1.066145;-0.304688;0.734375;0.004883;0.566970;-0.607425;-0.480711;-0.280175
29149;9.551098;-2.030625;-1.172973;-0.385130;-0.192944;1.209755;-0.288818;0.738037;0.004150;0.567033;-0.614549;-0.474608;-0.274864
29150;9.942937;-0.119501;-0.581371;-0.369411;-0.280369;1.324220;-0.266602;0.735352;0.013184;0.567018;-0.622175;-0.468306;-0.268474
29151;8.576279;1.356275;0.778155;-0.093818;-0.514902;1.357349;-0.248047;0.748291;0.018066;0.567507;-0.629064;-0.463486;-0.259606
29152;9.513080;-0.766913;0.457216;0.210067;-0.762765;1.412708;-0.229980;0.751465;0.012939;0.568653;-0.635163;-0.460121;-0.247972
29153;11.925631;-1.474914;1.026073;0.146019;-0.884981;1.687407;-0.210449;0.759521;0.022949;0.569432;-0.642732;-0.455642;-0.234592
29154;12.781796;-1.466065;1.044298;-0.219522;-0.980011;1.937787;-0.186035;0.761719;0.026123;0.568212;-0.652983;-0.449414;-0.220850
29155;12.171233;-2.311274;1.109637;-0.488061;-1.078421;2.045840;-0.161377;0.766357;0.035645;0.565155;-0.664856;-0.442398;-0.207002
29156;12.964572;-1.829069;0.069029;-0.523740;-1.266879;2.153156;-0.125244;0.781982;0.042969;0.561151;-0.677338;-0.435416;-0.191666
29157;15.264593;1.055387;-0.567062;-0.674966;-1.469125;2.345923;-0.096191;0.787354;0.063477;0.555582;-0.691203;-0.427819;-0.174754
29158;18.238070;5.786232;-2.223994;-1.217460;-1.614746;2.652991;-0.060059;0.781494;0.082031;0.546444;-0.708422;-0.418039;-0.157420
29159;19.109421;9.988216;-4.793617;-1.977075;-1.428341;2.860319;-0.021240;0.780029;0.108887;0.533264;-0.728953;-0.404813;-0.142773
29160;14.554129;6.640495;-2.836980;-2.813257;-1.225480;2.918727;0.025391;0.781494;0.141846;0.515163;-0.752339;-0.388878;-0.131781
29161;9.806033;-0.203425;-3.746015;-3.097409;-1.333497;2.800494;0.062744;0.773682;0.175781;0.494138;-0.775707;-0.373324;-0.121387
29162;8.874955;-7.050266;-6.538067;-3.060612;-1.271684;2.312050;0.102051;0.767334;0.216064;0.472440;-0.796383;-0.360240;-0.113146
29163;9.990318;-10.708448;-9.488994;-2.862843;-1.309546;2.059311;0.133545;0.742188;0.257568;0.451203;-0.814712;-0.348782;-0.104935
29164;9.620552;-11.699123;-11.030059;-2.360340;-1.249485;1.814728;0.154297;0.731689;0.281982;0.432953;-0.829693;-0.338893;-0.096501
29165;6.308959;-11.433950;-10.867357;-1.622226;-1.158176;1.452772;0.185791;0.727539;0.306152;0.419526;-0.840439;-0.331573;-0.087864
29166;3.818879;-11.088604;-10.904019;-1.008318;-0.815965;1.218003;0.202393;0.720459;0.316895;0.411037;-0.847868;-0.325043;-0.080716
29167;2.819664;-9.388592;-8.943933;-0.572688;-0.383930;0.850954;0.208740;0.717529;0.328857;0.406485;-0.852392;-0.319872;-0.076680
29168;2.114974;-8.557278;-7.628425;-0.447700;0.183744;0.226012;0.205566;0.708252;0.333008;0.403914;-0.854418;-0.317283;-0.078452
29169;1.584191;-9.209729;-7.684141;-0.565500;0.784253;-0.373508;0.204102;0.708008;0.357666;0.401680;-0.854822;-0.316851;-0.086822
29170;0.639730;-9.147464;-8.261252;-0.411194;1.364598;-0.810595;0.183838;0.718750;0.371094;0.401708;-0.853024;-0.317660;-0.100365
29171;-0.529807;-8.536244;-7.703583;-0.034214;1.841893;-1.225436;0.160156;0.716309;0.380127;0.405223;-0.848242;-0.320057;-0.117659
29172;-1.275757;-7.712926;-6.610194;0.150474;2.199275;-1.675297;0.118408;0.738525;0.389404;0.410377;-0.840916;-0.324475;-0.138446
29173;-1.443786;-7.057668;-5.728869;0.235388;2.485745;-2.134335;0.065918;0.732666;0.391357;0.416106;-0.831190;-0.331025;-0.162481
29174;-1.576151;-6.955415;-5.135379;0.428355;2.694372;-2.558369;0.027344;0.745605;0.394531;0.422814;-0.818631;-0.339772;-0.188751
29175;-2.378212;-7.011631;-4.705287;0.776957;2.857162;-2.982878;-0.040771;0.747803;0.389648;0.431228;-0.802488;-0.351022;-0.216423
29176;-3.380423;-7.284900;-4.745051;1.277042;2.979691;-3.430393;-0.095947;0.752441;0.371338;0.441940;-0.781910;-0.365245;-0.244749
29177;-3.802584;-6.816224;-4.530349;1.676566;3.013418;-3.803452;-0.167480;0.764404;0.349365;0.453853;-0.757341;-0.381979;-0.273026
29178;-3.327326;-5.615414;-3.111849;1.774487;2.974006;-4.190506;-0.236084;0.754639;0.313965;0.464502;-0.729795;-0.400795;-0.301663
29179;-1.069194;-5.138201;-3.127228;1.553881;3.029932;-4.619507;-0.309326;0.750244;0.281494;0.471916;-0.699951;-0.420585;-0.332372
29180;2.346964;-4.935467;-3.435832;0.922812;3.193161;-4.906652;-0.382080;0.718750;0.257812;0.474321;-0.669481;-0.438673;-0.366578
29181;5.609378;-4.528365;-4.538654;0.115504;3.575809;-5.002310;-0.462646;0.690186;0.234131;0.472139;-0.638992;-0.452212;-0.405313
29182;7.628727;-3.408243;-4.170234;-0.200134;3.865244;-4.969457;-0.526123;0.646484;0.205566;0.468217;-0.607176;-0.462162;-0.445552
29183;9.183750;-2.768540;-2.615138;-0.001363;3.627399;-4.769973;-0.592529;0.614746;0.166504;0.463909;-0.574643;-0.471563;-0.481874
29184;10.730454;-1.885856;-2.872131;0.660388;3.031387;-4.540383;-0.643799;0.563232;0.131348;0.460293;-0.541528;-0.483746;-0.510752
29185;11.527259;-0.888074;-2.303807;1.384390;2.338184;-4.021489;-0.685303;0.522705;0.110352;0.458508;-0.509665;-0.498429;-0.530642
29186;11.358718;-1.210182;-0.528469;1.380720;1.723349;-3.242063;-0.722656;0.493896;0.075928;0.456989;-0.483080;-0.511465;-0.544241
29187;10.445023;6.132731;2.572976;0.936835;1.149023;-2.049945;-0.734863;0.462158;0.046387;0.456303;-0.465504;-0.519490;-0.552470
29188;10.517555;9.721549;4.606148;0.753486;0.313753;-0.386293;-0.744385;0.467773;0.043457;0.458833;-0.459554;-0.523260;-0.551798
29189;8.358333;2.325043;3.277998;0.751023;-0.513228;1.103921;-0.736328;0.483643;0.050781;0.464546;-0.463869;-0.524412;-0.542231
29190;6.095692;-2.778159;0.574085;1.025283;-1.364907;2.175778;-0.714600;0.500977;0.056641;0.472278;-0.475498;-0.525774;-0.523848
29191;7.194309;-5.764141;-4.415601;1.177695;-1.811199;2.928970;-0.692383;0.533203;0.066406;0.481600;-0.491429;-0.526188;-0.499685
29192;18.853314;-1.051926;-10.825695;1.253050;-1.035844;1.994956;-0.681641;0.552979;0.058350;0.490412;-0.499395;-0.527273;-0.481751
29193;22.358380;12.080246;-4.689009;0.534965;-0.300723;-0.332478;-0.673340;0.554199;0.065918;0.490007;-0.496990;-0.532045;-0.479398
29194;22.129084;3.881305;2.324501;-0.677787;0.123393;1.782719;-0.671387;0.570068;0.075684;0.494832;-0.507146;-0.521412;-0.475473
29195;4.624762;-2.187188;-4.194236;-1.127997;-0.352147;1.779369;-0.653564;0.594727;0.082520;0.495527;-0.520884;-0.510813;-0.471383
29196;-1.040602;-13.034410;-4.851036;-0.381821;-1.699431;1.664250;-0.639893;0.606445;0.098877;0.493094;-0.536155;-0.509032;-0.458565
29197;4.623497;-13.436675;-4.394918;1.138904;-1.439383;1.594735;-0.613525;0.622803;0.115234;0.498095;-0.543670;-0.512106;-0.440536
29198;9.435698;-6.476983;-2.851849;2.172373;-1.210089;1.595485;-0.594238;0.644775;0.091064;0.508508;-0.545780;-0.517761;-0.418888
29199;11.807479;1.265074;-0.237334;1.657049;-0.648960;1.025291;-0.587646;0.649902;0.092285;0.516778;-0.545409;-0.521600;-0.404231
29200;10.108460;0.893845;-0.458034;0.377410;-0.217026;0.896140;-0.577637;0.666504;0.086914;0.520577;-0.548434;-0.519755;-0.397587
29201;8.117716;-2.988122;-1.965026;-0.727386;-0.047373;1.123458;-0.560303;0.670410;0.093994;0.520759;-0.556621;-0.512422;-0.395483
29202;7.564494;-6.757210;-3.244053;-0.787725;-0.096231;1.281683;-0.554199;0.685059;0.107422;0.520899;-0.565829;-0.504298;-0.392665
29203;8.459790;-7.477376;-2.827122;-0.211539;-0.168490;1.134753;-0.541992;0.692383;0.109131;0.522905;-0.572084;-0.499006;-0.387664
29204;9.010423;-5.314063;-1.976255;0.440538;-0.375337;0.854219;-0.524902;0.695801;0.098389;0.526208;-0.574952;-0.498020;-0.380146
29205;9.914592;-2.642838;-2.354379;0.456377;-0.386786;0.750759;-0.524414;0.710449;0.105957;0.529175;-0.577318;-0.497594;-0.372932
29206;9.889975;-1.515893;-2.432990;-0.085631;-0.261095;0.926262;-0.504150;0.721436;0.103760;0.530563;-0.582374;-0.494054;-0.367769
29207;8.915993;-2.716112;-1.934806;-0.693141;-0.144021;1.082857;-0.498047;0.729736;0.114746;0.529914;-0.590349;-0.487331;-0.364950
29208;8.116783;-5.587834;-1.979515;-0.950400;-0.049888;0.959383;-0.488525;0.732666;0.123291;0.527938;-0.598601;-0.479959;-0.364140
29209;7.716829;-6.892952;-2.414407;-0.689898;-0.090393;0.740059;-0.471191;0.727783;0.138672;0.526380;-0.604894;-0.474604;-0.363012
29210;8.188547;-6.219496;-2.805784;-0.239310;-0.173451;0.640591;-0.470703;0.737793;0.148926;0.526436;-0.609038;-0.471454;-0.360096
29211;8.876176;-4.136536;-3.025068;-0.006441;-0.188974;0.598582;-0.463379;0.734375;0.136230;0.527470;-0.612023;-0.469271;-0.356354
29212;9.012696;-2.254084;-2.797696;-0.057876;-0.184422;0.602612;-0.455811;0.742920;0.145752;0.528255;-0.615219;-0.466883;-0.352806
29213;8.647201;-1.805888;-2.319173;-0.236596;-0.161394;0.596928;-0.444824;0.745605;0.148682;0.528178;-0.619095;-0.463886;-0.350085
29214;8.580224;-2.738055;-1.749274;-0.325967;-0.149342;0.574009;-0.444580;0.744385;0.151123;0.527601;-0.623220;-0.460679;-0.347862
29215;8.713565;-3.666042;-1.598259;-0.225037;-0.188489;0.576330;-0.438721;0.757812;0.161133;0.527387;-0.627005;-0.457911;-0.345029
29216;8.809635;-3.596883;-1.651169;-0.027649;-0.282450;0.603412;-0.424561;0.767090;0.163818;0.527905;-0.630278;-0.455966;-0.340824
29217;8.666780;-2.886266;-1.501790;0.111511;-0.391854;0.642180;-0.419189;0.760742;0.169434;0.528827;-0.633374;-0.454677;-0.335334
29218;8.439363;-2.481769;-1.257241;0.190510;-0.488062;0.671740;-0.407471;0.770996;0.163330;0.529858;-0.636473;-0.453853;-0.328893
29219;8.959796;-1.811570;-1.022970;0.238048;-0.543573;0.728965;-0.400146;0.771484;0.162598;0.531055;-0.639694;-0.453072;-0.321709
29220;9.933772;-0.574029;-0.673762;0.178478;-0.566722;0.861893;-0.380371;0.776855;0.172119;0.532164;-0.643699;-0.451491;-0.314020
29221;10.701567;0.998821;-0.621137;0.091330;-0.649854;1.033919;-0.367676;0.785889;0.173340;0.532890;-0.648895;-0.449083;-0.305430
29222;11.153461;1.539756;-0.935962;0.046755;-0.789703;1.171127;-0.352539;0.795166;0.171875;0.533131;-0.655079;-0.446380;-0.295613
29223;11.866652;2.093191;-1.396710;-0.005679;-0.954096;1.338361;-0.332275;0.795898;0.169434;0.532793;-0.662415;-0.443288;-0.284313
29224;12.798801;3.887095;-1.587525;-0.224647;-1.137517;1.638558;-0.306396;0.813965;0.183838;0.531150;-0.672109;-0.438727;-0.271421
29225;13.846352;7.497999;-1.042834;-0.660943;-1.349363;1.991966;-0.273926;0.810059;0.201660;0.526890;-0.685263;-0.431976;-0.257290
29226;16.155870;12.217299;-1.047278;-1.173895;-1.487370;2.289305;-0.245850;0.815430;0.225830;0.519559;-0.701674;-0.422802;-0.242798
29227;19.370281;17.068119;-3.214533;-2.008802;-1.576592;2.642747;-0.203125;0.821777;0.264160;0.507334;-0.722577;-0.409925;-0.229033
29228;18.819720;15.001957;-2.781291;-3.286465;-1.459454;3.082653;-0.162354;0.808594;0.317139;0.488015;-0.749251;-0.390953;-0.218221
29229;14.242050;-0.762954;-0.512355;-4.169693;-1.309518;3.150754;-0.107910;0.797119;0.368896;0.462916;-0.778119;-0.368637;-0.210584
29230;8.924682;-18.299501;0.791781;-3.712567;-1.804899;2.221619;-0.069824;0.774170;0.417480;0.436808;-0.801861;-0.354386;-0.201563
29231;4.771963;-30.478258;-4.082147;-2.126281;-2.904304;1.014915;-0.042725;0.759521;0.445801;0.415487;-0.817115;-0.354390;-0.184666
29232;4.585614;-32.093636;-10.998353;1.069780;-3.500025;-0.295283;-0.027344;0.757324;0.420654;0.411769;-0.817577;-0.369931;-0.158637
29233;5.818620;-23.815341;-9.409183;4.390786;-4.042972;-0.718479;-0.015137;0.801025;0.376465;0.427739;-0.804658;-0.393953;-0.119856
29234;4.069989;-15.399675;-2.625188;5.258431;-4.359838;-1.104353;0.000488;0.826904;0.300049;0.446859;-0.785359;-0.421401;-0.077134
29235;0.659534;-9.710702;-0.415239;4.486784;-4.021879;-2.039090;-0.010010;0.844482;0.237793;0.460157;-0.763029;-0.451918;-0.042576
29236;-0.014570;-6.947862;0.544033;2.940836;-3.482797;-2.543420;-0.036865;0.854980;0.190430;0.464406;-0.742744;-0.481969;-0.019094
29237;0.384100;-8.346893;0.597045;1.291034;-2.990620;-2.706478;-0.063477;0.856445;0.194580;0.459672;-0.726947;-0.510113;-0.005881
29238;-0.695902;-11.031454;-0.654535;0.207629;-2.518781;-2.972035;-0.093506;0.853516;0.179199;0.449843;-0.713315;-0.537421;-0.001139
29239;-1.425176;-12.629506;-0.643521;-0.133291;-2.093981;-3.284475;-0.142578;0.840332;0.182861;0.439415;-0.698809;-0.564426;-0.001610
29240;0.202941;-12.161318;-0.460556;-0.021076;-1.814180;-3.422251;-0.185791;0.826660;0.193115;0.430497;-0.682511;-0.590625;-0.003674
29241;-0.046209;-12.275709;-1.041742;0.338232;-1.454823;-3.532831;-0.231201;0.832764;0.188477;0.424946;-0.663667;-0.615570;-0.006398
29242;-1.383720;-11.449074;-2.266686;0.823360;-1.080814;-3.664409;-0.276855;0.812256;0.179443;0.423550;-0.641720;-0.639310;-0.009150
29243;-2.324984;-10.009487;-2.650869;1.218688;-0.775776;-3.816119;-0.323242;0.807861;0.171875;0.425414;-0.616833;-0.662116;-0.011939
29244;-1.997044;-9.161218;-3.079165;1.435258;-0.449128;-3.954611;-0.371338;0.778564;0.150146;0.429670;-0.589640;-0.683713;-0.015672
29245;-0.518568;-8.930448;-3.481470;1.805878;-0.141292;-3.988420;-0.430908;0.751221;0.127930;0.436946;-0.560123;-0.703551;-0.018891
29246;1.108152;-8.919269;-3.757367;2.155199;0.119480;-4.065249;-0.481445;0.724854;0.104004;0.446759;-0.528054;-0.721874;-0.021519
29247;2.335030;-8.493573;-3.925711;2.473475;0.263724;-4.169490;-0.532959;0.710693;0.069092;0.458132;-0.493323;-0.739059;-0.023208
29248;3.463383;-7.541548;-3.871909;2.664943;0.338483;-4.244573;-0.578369;0.671387;0.037842;0.469968;-0.456546;-0.755055;-0.024262
29249;4.671188;-6.681292;-4.008200;2.638427;0.439256;-4.265188;-0.613037;0.629395;0.000977;0.481514;-0.418917;-0.769403;-0.025896
29250;5.876642;-5.821184;-4.322751;2.487057;0.594075;-4.079059;-0.671875;0.589844;-0.034668;0.492762;-0.382347;-0.781152;-0.028244
29251;6.166878;-5.906029;-4.646837;2.489725;0.717609;-3.867880;-0.699951;0.535156;-0.062256;0.504113;-0.346513;-0.790503;-0.030053
29252;6.018661;-6.828745;-5.297124;2.772987;0.680772;-3.860164;-0.728760;0.490967;-0.093994;0.515265;-0.309010;-0.798828;-0.029807
29253;5.422071;-7.669321;-5.990235;3.513521;0.462703;-4.049858;-0.768311;0.434814;-0.127441;0.525902;-0.266560;-0.807315;-0.024823
29254;4.459930;-7.589167;-5.410449;4.411153;0.042828;-4.232977;-0.789062;0.377441;-0.146240;0.534465;-0.218417;-0.816368;-0.013603
29255;4.849277;-7.044711;-5.767870;5.087105;-0.314390;-4.375406;-0.816162;0.302490;-0.179688;0.540288;-0.165706;-0.825000;0.002278
29256;6.225091;-4.516148;-5.483437;5.321676;-0.460441;-4.326592;-0.830322;0.229492;-0.198975;0.543705;-0.111731;-0.831561;0.020194
29257;8.019233;-2.090640;-5.369574;5.151916;-0.506386;-3.974186;-0.841064;0.160645;-0.206055;0.544897;-0.060601;-0.835423;0.038512
29258;8.944732;-0.338493;-5.636104;4.933477;-0.616688;-3.431374;-0.854004;0.088623;-0.213135;0.543547;-0.014030;-0.837275;0.057717
29259;8.858465;0.110126;-5.803248;4.814414;-0.749210;-2.831314;-0.859863;0.030029;-0.195801;0.539684;0.027917;-0.837718;0.078676
29260;8.290301;-0.476605;-5.022333;4.636379;-0.755932;-2.238357;-0.861816;-0.008789;-0.187012;0.534325;0.064877;-0.836726;0.100884
29261;8.163061;-1.413352;-3.416095;4.410327;-0.743447;-1.638569;-0.867676;-0.048340;-0.177002;0.527747;0.096532;-0.834737;0.124010
29262;7.978831;-1.908761;-2.535609;3.931244;-0.780380;-1.111934;-0.869141;-0.079346;-0.164551;0.520020;0.122328;-0.832661;0.145912
29263;9.620539;-0.629655;-2.516484;3.422518;-0.693305;-0.546559;-0.864990;-0.084473;-0.148193;0.512187;0.141772;-0.830534;0.166669
29264;13.854725;-1.448359;-3.439578;2.955158;-0.564288;0.405699;-0.869629;-0.097656;-0.135498;0.504088;0.152351;-0.828997;0.188279
29265;14.812704;0.811276;-8.441409;1.933873;-0.774031;0.989646;-0.870850;-0.087891;-0.128906;0.494662;0.154865;-0.830260;0.204924
29266;10.529707;0.981916;-3.344769;0.918484;-0.383459;0.855514;-0.876221;-0.065430;-0.111328;0.489354;0.153415;-0.831274;0.214432
29267;6.401986;-9.765509;-3.175432;0.924080;-0.712812;0.454954;-0.886475;-0.073730;-0.099121;0.482415;0.155335;-0.833013;0.221892
29268;4.931932;-9.601251;-4.240331;1.852228;-0.794219;0.383767;-0.877441;-0.054932;-0.082764;0.473739;0.161608;-0.833099;0.235373
29269;6.352271;-4.883290;-3.729149;2.196506;-0.735059;0.409730;-0.867920;-0.069092;-0.072510;0.464790;0.168898;-0.832024;0.251355
29270;8.695570;-1.493012;-3.251228;1.770326;-0.482796;0.161375;-0.880127;-0.060303;-0.066162;0.458561;0.175684;-0.830253;0.263699
29271;9.135266;-2.376608;-3.588740;1.468873;-0.437849;0.071014;-0.875732;-0.061523;-0.060547;0.453189;0.181810;-0.828672;0.273620
29272;9.377142;-3.921844;-3.471558;1.215803;-0.459271;0.094348;-0.881836;-0.064941;-0.054688;0.447935;0.186844;-0.827664;0.281807
29273;8.875026;-4.807531;-2.813914;1.024782;-0.476986;0.206803;-0.883789;-0.063965;-0.046143;0.442542;0.190416;-0.827257;0.289039
29274;7.851521;-6.028856;-2.913926;0.941595;-0.470817;0.237186;-0.887451;-0.056396;-0.035645;0.437209;0.193445;-0.827001;0.295798
29275;7.267640;-6.507623;-4.341360;0.931232;-0.468580;0.117921;-0.885742;-0.060303;-0.031006;0.432165;0.197242;-0.826501;0.302034
29276;7.556046;-5.934210;-5.192086;0.970766;-0.431593;-0.005259;-0.882080;-0.060059;-0.014404;0.427584;0.201924;-0.825500;0.308138
29277;8.011883;-5.800307;-5.494901;0.961007;-0.401779;-0.039002;-0.882080;-0.064209;-0.015381;0.423272;0.206713;-0.824296;0.314081
29278;7.783685;-5.919391;-5.543553;1.015683;-0.396830;-0.049691;-0.875000;-0.061279;-0.013184;0.418895;0.211738;-0.822845;0.320343
29279;7.533416;-5.039278;-5.411368;1.070714;-0.358336;-0.122154;-0.884766;-0.059570;0.005127;0.414839;0.217328;-0.820914;0.326768
29280;7.829218;-3.898873;-4.990140;1.055919;-0.286414;-0.148603;-0.885986;-0.066406;0.009033;0.411328;0.222836;-0.818656;0.333100
29281;8.175624;-3.263605;-4.556030;0.924462;-0.226875;-0.141553;-0.888428;-0.067383;0.010986;0.408421;0.227663;-0.816508;0.338639
29282;8.253662;-2.744732;-4.273148;0.739382;-0.174711;-0.106616;-0.882080;-0.064941;0.011719;0.406099;0.231461;-0.814728;0.343116
29283;8.342491;-2.409540;-4.004859;0.540254;-0.118013;-0.073127;-0.885254;-0.065430;0.025391;0.404437;0.234186;-0.813364;0.346449
29284;8.107596;-2.732968;-3.849670;0.419175;-0.095478;-0.069869;-0.884033;-0.076904;0.015137;0.403144;0.236414;-0.812267;0.349007
29285;8.033741;-3.510717;-3.456008;0.450883;-0.105234;-0.095642;-0.889160;-0.069336;0.018066;0.401800;0.238948;-0.811045;0.351663
29286;8.274707;-3.892474;-3.139377;0.552129;-0.125475;-0.106749;-0.885010;-0.073242;0.024170;0.400136;0.241947;-0.809558;0.354922
29287;8.555988;-3.358446;-3.135203;0.550939;-0.135022;-0.084222;-0.881836;-0.072998;0.030518;0.398333;0.244818;-0.808131;0.358218
29288;8.661349;-2.936756;-3.329393;0.409483;-0.139345;-0.019246;-0.883789;-0.068604;0.025879;0.396587;0.246790;-0.807257;0.360763
29289;8.953355;-2.820885;-3.402903;0.257695;-0.150589;0.069640;-0.883057;-0.067871;0.018555;0.394811;0.247690;-0.807050;0.362552
29290;8.847665;-3.083456;-3.057167;0.221650;-0.207156;0.126741;-0.885498;-0.067627;0.031006;0.392558;0.248258;-0.807249;0.364164
29291;8.611778;-3.103005;-2.463680;0.313936;-0.306015;0.158046;-0.880371;-0.068604;0.038086;0.389339;0.249224;-0.807548;0.366290
29292;8.483512;-2.952454;-1.758223;0.466525;-0.414727;0.172341;-0.890869;-0.064453;0.037598;0.385022;0.250919;-0.807743;0.369254
29293;8.835701;-2.573733;-1.252395;0.525179;-0.508945;0.234952;-0.892822;-0.068848;0.052979;0.379748;0.252658;-0.808159;0.372606
29294;9.058743;-1.539787;-0.973886;0.431199;-0.590446;0.322522;-0.888428;-0.051270;0.069824;0.373829;0.253766;-0.809271;0.375413
29295;9.241607;-0.303995;-0.348217;0.258645;-0.648974;0.438175;-0.878418;-0.047607;0.071289;0.367500;0.253725;-0.811313;0.377278
29296;9.340431;-0.381801;-0.315414;0.188161;-0.730441;0.548853;-0.886963;-0.039307;0.081055;0.360412;0.252970;-0.814010;0.378811
29297;10.183653;-1.329147;-0.229664;0.195939;-0.868647;0.694134;-0.881592;-0.027832;0.099609;0.351886;0.251678;-0.817340;0.380513
29298;11.373226;-1.098853;-0.561353;0.147157;-1.070513;0.875642;-0.880371;-0.016357;0.107422;0.341467;0.249631;-0.821705;0.381950
29299;11.992607;-0.749278;-0.670824;0.066105;-1.297929;1.020263;-0.880371;-0.001465;0.121094;0.329159;0.247053;-0.827136;0.382707
29300;13.448573;-2.113403;-0.553514;-0.026022;-1.493614;1.135635;-0.880615;0.012207;0.145996;0.315260;0.244007;-0.833453;0.382659
29301;16.293936;-0.437897;-1.153980;-0.101876;-1.774414;1.321554;-0.872559;0.031494;0.170410;0.298876;0.240318;-0.840881;0.381889
29302;16.488849;3.469362;0.441869;-0.069154;-2.186933;1.488677;-0.865479;0.061523;0.207031;0.278889;0.236766;-0.849217;0.380779
29303;16.921314;4.310240;0.410344;0.012214;-2.522240;1.636910;-0.855225;0.076660;0.234375;0.255740;0.233298;-0.857895;0.379717
29304;16.508704;2.206583;1.427281;0.227657;-2.781280;1.728635;-0.841309;0.096680;0.278320;0.229893;0.230325;-0.866024;0.379607
29305;13.938970;-1.069494;1.493528;0.247512;-2.893483;1.689334;-0.830078;0.114990;0.310547;0.203146;0.227888;-0.873568;0.379048
29306;12.174712;-5.175716;-0.511015;0.128814;-2.721893;1.454219;-0.811523;0.143799;0.346680;0.178495;0.226278;-0.880114;0.377276
29307;11.507871;-9.861370;-2.867795;0.368559;-2.572950;1.147509;-0.801025;0.153076;0.380371;0.155323;0.226674;-0.884570;0.376869
29308;11.150470;-12.066368;-7.278540;0.628404;-2.470231;0.906132;-0.781006;0.176758;0.403320;0.133098;0.228775;-0.887146;0.378046
29309;9.582724;-11.230370;-7.418288;0.950918;-2.383035;0.620870;-0.763672;0.181641;0.424316;0.111730;0.232965;-0.887625;0.381269
29310;8.035807;-11.523887;-5.348330;1.346635;-2.130282;0.109158;-0.751221;0.191895;0.451904;0.093036;0.240416;-0.885204;0.387245
29311;6.579281;-12.140506;-5.171798;1.792026;-1.828576;-0.658635;-0.739990;0.194580;0.459717;0.078103;0.252805;-0.879155;0.396327
29312;5.295667;-12.432253;-5.029385;2.105548;-1.313169;-1.414540;-0.731689;0.192871;0.457275;0.068734;0.269112;-0.869668;0.408084
29313;3.911035;-11.130173;-4.900868;2.215016;-0.749870;-2.088166;-0.726074;0.191406;0.472168;0.065440;0.288285;-0.857414;0.421248
29314;3.224976;-9.909110;-4.808871;1.849749;-0.183540;-2.676754;-0.735107;0.165527;0.460205;0.069079;0.309269;-0.844093;0.432536
29315;3.325027;-9.336441;-4.996989;1.170716;0.364757;-2.981222;-0.750244;0.137451;0.444336;0.079368;0.329795;-0.831484;0.439965
29316;2.596540;-9.264114;-4.888714;0.643665;0.811259;-3.056563;-0.761230;0.095947;0.435303;0.094415;0.348607;-0.819688;0.444602
29317;1.061012;-8.795356;-4.639457;0.438781;1.173932;-3.233456;-0.767578;0.058838;0.408447;0.113113;0.366834;-0.807198;0.448409
29318;-0.020852;-8.175490;-4.840070;0.324259;1.572311;-3.568771;-0.774902;0.014648;0.386475;0.135983;0.385349;-0.792956;0.451924
29319;-0.595950;-6.917771;-4.819969;0.258359;1.973165;-3.929038;-0.791260;-0.027100;0.364014;0.162901;0.404169;-0.776386;0.455341
29320;-0.810164;-5.806723;-4.766186;0.201222;2.366520;-4.214119;-0.789307;-0.090088;0.327393;0.193392;0.422633;-0.757376;0.458653
29321;-0.829333;-5.318271;-4.876911;0.198566;2.690356;-4.418600;-0.797363;-0.149902;0.291016;0.226376;0.440377;-0.735808;0.461962
29322;-0.766393;-5.451794;-5.212784;0.207550;2.963137;-4.568828;-0.799805;-0.207275;0.246582;0.261128;0.457113;-0.711692;0.465139
29323;0.325312;-5.339062;-5.386348;0.047473;3.402311;-4.646216;-0.782227;-0.256836;0.208740;0.298818;0.471227;-0.685391;0.467859
29324;2.065413;-4.529173;-4.164062;-0.216892;3.808854;-4.515270;-0.768555;-0.324219;0.146484;0.338645;0.481204;-0.658003;0.469888
29325;3.877492;-3.856334;-2.483463;-0.561103;3.959227;-4.302060;-0.755371;-0.381836;0.097412;0.379021;0.487265;-0.630805;0.470108
29326;6.324087;-4.246337;-1.734743;-0.756183;3.976810;-4.151143;-0.734375;-0.434814;0.050537;0.418789;0.490670;-0.603433;0.468750
29327;7.743509;-5.766723;-0.914612;-0.454689;3.461613;-4.043405;-0.691162;-0.491455;-0.004150;0.453410;0.495514;-0.575816;0.466177
29328;8.416357;-6.050320;-0.985952;0.441217;2.460216;-3.708260;-0.658936;-0.518066;-0.028320;0.477462;0.505167;-0.548911;0.464255
29329;9.559907;-6.730265;-2.402208;1.743446;1.418846;-3.180011;-0.621582;-0.553467;-0.019775;0.488643;0.520977;-0.522662;0.465441
29330;9.623514;-2.850150;-2.102322;2.609821;0.451372;-2.363718;-0.603760;-0.580078;-0.008545;0.488211;0.539994;-0.500033;0.469066
29331;9.455386;1.982580;-0.081163;2.664425;-0.199018;-1.301763;-0.588867;-0.594238;0.032959;0.480308;0.556941;-0.484243;0.473951
29332;10.161547;1.488801;1.023129;2.127024;-0.616327;0.095600;-0.586182;-0.595703;0.049805;0.467467;0.567483;-0.478493;0.480086
29333;11.183421;-1.104856;-0.436996;1.454047;-0.696702;1.403359;-0.604004;-0.580322;0.072266;0.452101;0.570328;-0.481770;0.488087
29334;18.451724;0.243983;-6.114892;1.543632;-0.902752;1.628829;-0.613525;-0.561768;0.096436;0.434398;0.573243;-0.486357;0.496133
29335;22.120646;5.176786;-5.977108;1.393123;-1.110718;1.023301;-0.613037;-0.552490;0.123291;0.418921;0.578730;-0.489266;0.500195
29336;13.098396;-0.831151;-4.793994;0.402979;-1.276060;2.084584;-0.629883;-0.516602;0.133545;0.402973;0.576926;-0.501823;0.502934
29337;2.534777;-3.759712;-4.255999;0.446894;-1.158305;1.857445;-0.648193;-0.502441;0.147217;0.388103;0.575507;-0.512525;0.505456
29338;1.645097;-7.318807;-3.695942;0.437211;-0.977075;1.552459;-0.654541;-0.483398;0.163574;0.375221;0.574427;-0.521081;0.507658
29339;7.949985;-10.455352;-4.301773;0.929682;-0.688915;1.329919;-0.658691;-0.476562;0.175293;0.362085;0.574498;-0.525484;0.512555
29340;9.704791;-9.636987;-4.894659;1.216917;-0.608477;1.303106;-0.655518;-0.463623;0.193115;0.347952;0.575070;-0.528186;0.518888
29341;9.472676;-2.441043;-3.068366;0.944755;-0.461754;1.324809;-0.666504;-0.422363;0.201660;0.335592;0.573988;-0.531641;0.524665
29342;8.904162;-1.408207;-1.013802;-0.095141;-0.069115;1.186953;-0.686035;-0.422119;0.209229;0.330497;0.568808;-0.537811;0.527245
29343;8.459970;-4.018509;-2.317718;-0.703477;0.061076;1.160917;-0.688965;-0.406494;0.201172;0.328945;0.561435;-0.546112;0.527587
29344;8.437285;-5.554465;-3.067362;-0.441776;-0.071766;1.182951;-0.691406;-0.397949;0.197998;0.325426;0.555195;-0.553669;0.528495
29345;8.514022;-4.865623;-1.772466;0.120922;-0.231002;1.090478;-0.709717;-0.379150;0.198486;0.318943;0.551551;-0.558705;0.530957
29346;8.756725;-4.023672;-1.017768;0.414025;-0.293486;0.879135;-0.703125;-0.368408;0.208252;0.311728;0.549902;-0.561598;0.533893
29347;9.154908;-3.236794;-1.197343;0.215287;-0.216604;0.820443;-0.709961;-0.363770;0.209961;0.306024;0.547634;-0.564873;0.536064
29348;8.828593;-4.235308;-1.961797;-0.223485;-0.079274;0.837570;-0.710205;-0.348145;0.211182;0.302875;0.543524;-0.569806;0.536813
29349;8.457474;-5.398596;-2.726846;-0.341374;-0.010621;0.807844;-0.720703;-0.337402;0.199463;0.300702;0.538922;-0.574932;0.537211
29350;8.320935;-5.197688;-3.097551;-0.167241;-0.019980;0.716085;-0.716553;-0.335449;0.199707;0.298097;0.535210;-0.578869;0.538145
29351;8.563421;-4.239329;-3.327693;0.144193;-0.102300;0.601868;-0.720459;-0.326172;0.203613;0.294207;0.533172;-0.581090;0.539911
29352;8.758390;-3.273512;-3.240561;0.390773;-0.202283;0.549360;-0.723389;-0.319580;0.207275;0.288963;0.532424;-0.582201;0.542279
29353;8.990376;-2.659878;-2.633354;0.405006;-0.204408;0.556189;-0.725098;-0.312988;0.217285;0.283605;0.531669;-0.583264;0.544701
29354;9.262996;-1.881755;-1.910782;0.274173;-0.147489;0.575582;-0.721191;-0.306885;0.214844;0.279006;0.530235;-0.584855;0.546765
29355;9.621341;-1.422325;-1.532222;0.062361;-0.083944;0.642300;-0.733643;-0.302734;0.219238;0.275340;0.527680;-0.587539;0.548215
29356;9.502408;-1.435066;-1.546626;-0.136799;-0.056874;0.729966;-0.736084;-0.282959;0.225586;0.272272;0.524101;-0.591433;0.548992
29357;9.222762;-1.757792;-1.623117;-0.178791;-0.082328;0.784530;-0.730713;-0.279053;0.222168;0.269003;0.520255;-0.595789;0.549552
29358;9.158357;-1.881185;-1.438219;-0.092686;-0.153807;0.868253;-0.741455;-0.268555;0.218994;0.264608;0.516491;-0.600242;0.550390
29359;9.403248;-1.641135;-1.226910;-0.066194;-0.193687;0.946393;-0.743652;-0.255127;0.217041;0.259526;0.512550;-0.604959;0.551329
29360;9.757007;-1.651930;-1.001234;-0.139036;-0.225982;1.075388;-0.748779;-0.240479;0.224609;0.253981;0.507915;-0.610583;0.552000
29361;9.882839;-1.314109;-0.333425;-0.217407;-0.314559;1.274669;-0.757568;-0.229736;0.234375;0.247374;0.502460;-0.617532;0.552263
29362;9.683256;-0.929616;0.753206;-0.306116;-0.434416;1.438282;-0.762207;-0.207275;0.227295;0.239735;0.496466;-0.625728;0.551827
29363;9.712508;-0.563612;1.106108;-0.260486;-0.580876;1.517866;-0.758545;-0.192139;0.235596;0.230735;0.490742;-0.634220;0.551089
29364;9.699481;0.601544;0.901887;-0.130573;-0.740940;1.606779;-0.756104;-0.179199;0.243896;0.219905;0.485442;-0.642649;0.550445
29365;10.683916;-0.354861;0.280362;0.011100;-0.860287;1.692462;-0.753662;-0.152344;0.258545;0.207419;0.480388;-0.650836;0.550107
29366;13.111547;-1.174153;-0.203257;-0.161354;-1.002015;1.955119;-0.754150;-0.137939;0.263184;0.193593;0.474131;-0.660912;0.548559
29367;13.698853;0.524183;-0.504774;-0.550670;-1.206855;2.273096;-0.748291;-0.099854;0.271484;0.178648;0.466252;-0.674076;0.544348
29368;14.599187;0.991961;0.609083;-0.803048;-1.371080;2.465070;-0.744385;-0.086182;0.299316;0.162801;0.457431;-0.689005;0.538076
29369;17.119831;0.603779;0.585756;-0.813200;-1.666977;2.576092;-0.737793;-0.056396;0.308350;0.144698;0.449010;-0.704347;0.530422
29370;20.819882;4.833371;-0.512047;-0.914014;-1.956366;2.782681;-0.726562;-0.024170;0.324463;0.124258;0.440209;-0.720698;0.520933
29371;21.235717;8.458136;-2.685100;-1.380969;-1.910896;2.931690;-0.711914;0.000000;0.352539;0.105061;0.429462;-0.738898;0.508482
29372;16.838785;8.510212;-1.592035;-2.437387;-1.610101;3.037847;-0.696777;0.018311;0.371826;0.090954;0.415424;-0.760866;0.490136
29373;11.085533;-0.832286;-2.859965;-2.661970;-1.795237;2.841966;-0.685547;0.025635;0.391113;0.077165;0.402723;-0.782261;0.468965
29374;9.645153;-11.171291;-5.967504;-2.551581;-1.620483;2.203545;-0.667725;0.034424;0.406006;0.066572;0.393133;-0.800101;0.448166
29375;10.541672;-13.800679;-8.308558;-2.153374;-1.552343;1.825649;-0.644775;0.036621;0.421631;0.056498;0.385702;-0.814513;0.429663
29376;9.538253;-13.220891;-10.468053;-1.056145;-1.400147;1.227562;-0.641357;0.045410;0.441162;0.046050;0.382106;-0.822589;0.418596
29377;5.076766;-12.451012;-11.779741;-0.047584;-0.880471;0.586907;-0.626953;0.052002;0.452148;0.038184;0.381404;-0.824749;0.415767
29378;4.720543;-11.129072;-8.785680;0.336249;-0.450741;0.232861;-0.609375;0.058105;0.458496;0.033274;0.381745;-0.824281;0.416803
29379;4.546593;-8.455031;-6.352937;0.103929;-0.006939;-0.287590;-0.618652;0.057617;0.454834;0.033956;0.384045;-0.822829;0.417502
29380;2.788434;-9.155815;-6.853785;-0.477331;0.599826;-0.992135;-0.621826;0.055908;0.441895;0.043108;0.388874;-0.820924;0.415937
29381;0.755639;-9.931691;-8.158667;-0.612272;1.234947;-1.510575;-0.618896;0.024658;0.433838;0.058829;0.394910;-0.817411;0.415241
29382;-0.825872;-10.144508;-8.414008;0.052876;1.826560;-2.078780;-0.634521;-0.001953;0.416260;0.078326;0.402915;-0.809098;0.420578
29383;-1.260434;-9.100970;-7.190670;0.792495;2.226546;-2.604159;-0.643555;-0.016846;0.395508;0.099812;0.413240;-0.795603;0.431609
29384;-1.384941;-7.655554;-5.838412;1.179820;2.413018;-3.062013;-0.655029;-0.041748;0.380371;0.122733;0.425814;-0.778180;0.445034
29385;-1.605787;-6.881919;-5.092013;1.404390;2.495830;-3.452361;-0.669189;-0.063721;0.352783;0.146671;0.440276;-0.757458;0.459240
29386;-1.994659;-6.277650;-4.832888;1.491979;2.532847;-3.729927;-0.680664;-0.094971;0.322998;0.171353;0.455781;-0.734211;0.473113
29387;-2.245481;-4.971630;-3.767603;1.299255;2.592706;-3.983373;-0.689697;-0.133545;0.310791;0.197842;0.471560;-0.709481;0.484899
29388;-1.479047;-4.240252;-2.913967;1.012741;2.776686;-4.311354;-0.689209;-0.181152;0.276367;0.227504;0.487194;-0.683044;0.494302
29389;0.324351;-3.812163;-2.023267;0.592925;2.937050;-4.604743;-0.680420;-0.225342;0.245605;0.260528;0.502048;-0.655477;0.500423
29390;3.114685;-4.518061;-2.875764;0.041087;3.169733;-4.703089;-0.665283;-0.270020;0.218262;0.296970;0.514164;-0.627872;0.503210
29391;4.587972;-5.481260;-4.445399;-0.310760;3.445219;-4.590327;-0.659668;-0.319824;0.181885;0.335210;0.522480;-0.600122;0.504482
29392;4.315162;-5.632590;-3.878347;-0.296337;3.575062;-4.508727;-0.646973;-0.378174;0.129395;0.372918;0.528662;-0.570926;0.505462
29393;5.145937;-4.642314;-1.669896;-0.110961;3.166510;-4.580275;-0.612061;-0.416748;0.106201;0.407333;0.536281;-0.540636;0.504178
29394;8.037866;-4.804201;-1.296701;0.145069;2.692475;-4.357061;-0.592285;-0.457275;0.074707;0.436719;0.544672;-0.510802;0.501687
29395;9.609901;-3.833086;-1.774579;0.341437;2.235488;-3.801808;-0.555908;-0.495117;0.059082;0.460254;0.552442;-0.483518;0.499184
29396;10.866036;-2.405994;-2.317073;0.596293;1.772548;-3.008526;-0.533203;-0.527100;0.047607;0.476937;0.559290;-0.460065;0.498062
29397;11.410867;-0.605916;-0.306034;0.502079;1.301708;-2.048119;-0.517822;-0.535156;0.042236;0.487959;0.563665;-0.443055;0.497875
29398;10.431918;2.312588;1.608086;0.303595;0.706840;-0.963801;-0.515137;-0.540771;0.032471;0.493088;0.565542;-0.434265;0.498438
29399;9.573393;0.427326;1.124220;0.229571;0.112600;0.382004;-0.513672;-0.541260;0.042480;0.490795;0.564678;-0.434538;0.501434
29400;7.570284;-3.779462;-1.020519;0.520027;-0.618620;1.590341;-0.524170;-0.529053;0.056885;0.479380;0.563617;-0.442222;0.506923
29401;5.723162;-7.581243;-3.593986;0.790553;-1.284045;2.449568;-0.548096;-0.499268;0.062012;0.460418;0.563058;-0.455289;0.513510
29402;7.043372;-8.675039;-10.722141;1.084649;-1.484483;2.708909;-0.560303;-0.471436;0.088867;0.437898;0.563127;-0.468799;0.520922
29403;22.457444;9.961509;-11.707875;1.493139;-0.220316;-0.168512;-0.562744;-0.475342;0.112793;0.430683;0.570183;-0.462238;0.525110
29404;26.403195;6.537136;0.320770;1.536391;-0.686359;-0.226812;-0.563965;-0.468994;0.130615;0.421649;0.579567;-0.456802;0.526922
29405;16.046569;-0.075441;-1.267197;0.628586;-1.036240;1.653179;-0.576172;-0.454590;0.149170;0.407313;0.580005;-0.465537;0.530062
29406;-0.936407;-10.869092;-2.328754;1.404252;-1.989596;1.763517;-0.582764;-0.440674;0.162598;0.384857;0.586594;-0.474401;0.531729
29407;7.248280;-7.576969;-1.334650;1.098438;-1.022422;1.783495;-0.591064;-0.418457;0.182861;0.367429;0.587535;-0.481398;0.536708
29408;10.845552;-1.980747;0.608164;0.415324;-0.309583;1.979246;-0.613037;-0.386963;0.194092;0.355201;0.582208;-0.490075;0.542856
29409;8.468826;1.475879;0.684087;-0.854080;0.129211;1.584368;-0.620850;-0.376953;0.179688;0.352616;0.572601;-0.501153;0.544643
29410;7.890469;-0.637749;-1.625825;-1.606932;0.413946;1.420204;-0.625000;-0.371338;0.174072;0.355461;0.560018;-0.513883;0.544014
29411;8.137502;-7.240544;-3.576000;-1.469135;0.163989;1.618092;-0.631592;-0.354492;0.163330;0.355576;0.547945;-0.527483;0.543215
29412;7.661704;-9.937305;-4.006201;-0.170534;-0.277661;1.231884;-0.639404;-0.346436;0.157959;0.349485;0.543288;-0.534645;0.544842
29413;8.249398;-7.217204;-2.500625;1.128468;-0.749810;0.769905;-0.642578;-0.330811;0.184326;0.337452;0.546531;-0.535130;0.548694
29414;9.199676;-3.261767;-0.602985;1.368098;-0.798808;0.768155;-0.645996;-0.321777;0.196533;0.324049;0.550569;-0.534555;0.553279
29415;10.394757;0.804849;-0.329370;0.361301;-0.420024;1.006748;-0.646729;-0.308594;0.205078;0.315800;0.548993;-0.538610;0.555677
29416;8.308821;-0.853663;-1.332994;-1.233461;0.230151;1.315597;-0.654053;-0.294434;0.189697;0.316286;0.538739;-0.549660;0.554615
29417;9.067493;-4.261740;-3.154434;-1.556240;0.233963;1.113463;-0.659668;-0.293701;0.180420;0.319096;0.528413;-0.561149;0.551425
29418;7.860958;-6.161295;-3.044206;-1.047421;0.107891;0.971150;-0.669922;-0.277100;0.173828;0.319664;0.520577;-0.569902;0.549569
29419;8.149267;-7.776117;-3.029892;-0.229736;-0.183447;0.653063;-0.671631;-0.276855;0.187744;0.316728;0.517714;-0.574261;0.549436
29420;8.739669;-5.625665;-2.290557;0.620498;-0.448797;0.552291;-0.670898;-0.271484;0.187256;0.309295;0.518760;-0.574973;0.551934
29421;9.528340;-2.465368;-1.746880;0.685075;-0.457998;0.552166;-0.676025;-0.258057;0.195312;0.301517;0.519979;-0.575376;0.554664
29422;9.503410;-0.385029;-1.743829;0.090202;-0.276481;0.653055;-0.669678;-0.242188;0.196777;0.296705;0.518354;-0.578478;0.555552
29423;9.046317;-0.814594;-1.853071;-0.601719;-0.071978;0.791433;-0.683350;-0.245605;0.202393;0.295214;0.513381;-0.584843;0.554300
29424;9.128295;-2.785630;-1.883535;-0.872092;-0.013347;0.876670;-0.690674;-0.235107;0.196289;0.294747;0.507014;-0.592623;0.552141
29425;9.124505;-3.837132;-1.227489;-0.621829;-0.131963;0.889011;-0.687012;-0.229004;0.190674;0.292552;0.501699;-0.599539;0.550694
29426;9.226601;-3.357031;-0.645602;-0.215402;-0.312344;0.868042;-0.685791;-0.210938;0.198975;0.287831;0.498271;-0.604897;0.550434
29427;9.317086;-1.774283;-0.275053;0.013162;-0.419548;0.911953;-0.697754;-0.204102;0.202881;0.281401;0.495630;-0.609604;0.550952
29428;9.639956;-0.331445;-0.334125;-0.080046;-0.426300;1.038202;-0.694824;-0.195557;0.207520;0.274720;0.492122;-0.615224;0.551221
29429;9.851645;-0.345545;-0.648679;-0.366575;-0.403947;1.191693;-0.691406;-0.174316;0.209717;0.268597;0.487023;-0.622668;0.550408
29430;9.940276;-0.539626;-0.648844;-0.541214;-0.437131;1.347832;-0.698730;-0.166748;0.220215;0.262261;0.480812;-0.631528;0.548827
29431;9.522842;0.484766;0.090185;-0.345540;-0.621274;1.460239;-0.705566;-0.151367;0.223633;0.253615;0.475202;-0.640233;0.547690
29432;9.460134;0.143907;0.748230;0.156159;-0.936313;1.484016;-0.701904;-0.130615;0.234131;0.241146;0.471875;-0.647273;0.547923
29433;11.739230;-0.331536;0.301060;0.428534;-1.173281;1.641315;-0.700928;-0.110352;0.244141;0.225552;0.469216;-0.653991;0.548869
29434;13.061912;0.800720;-0.200376;0.135918;-1.298282;1.965980;-0.692139;-0.087158;0.254395;0.208864;0.464659;-0.663320;0.548156
29435;13.206437;1.077217;-0.738352;-0.420504;-1.361532;2.265141;-0.689209;-0.065186;0.272949;0.192528;0.457575;-0.676156;0.544400
29436;13.493823;0.046666;-0.868512;-0.722144;-1.474224;2.383282;-0.687500;-0.040039;0.287109;0.176077;0.449619;-0.690619;0.538410
29437;15.010783;-0.951821;-0.071109;-0.686793;-1.770440;2.396316;-0.679199;-0.018799;0.306396;0.157630;0.442705;-0.704974;0.531203
29438;18.857908;2.662166;0.083596;-0.642242;-2.041642;2.480424;-0.676025;0.010010;0.331787;0.136955;0.436263;-0.719299;0.522998
29439;20.349171;5.333224;-1.706272;-0.809763;-1.960423;2.500839;-0.656738;0.042480;0.350586;0.117200;0.428851;-0.733787;0.513720
29440;15.614495;4.947835;-0.735902;-1.590439;-1.609473;2.645882;-0.641602;0.049805;0.374756;0.101690;0.417974;-0.751199;0.500656
29441;10.868878;-1.704194;-1.018391;-2.057172;-1.583196;2.671371;-0.627197;0.073242;0.393555;0.087793;0.406076;-0.769944;0.484336
29442;10.138385;-8.835691;-5.612801;-2.651936;-1.451651;2.346270;-0.611816;0.080566;0.415283;0.077992;0.394906;-0.789133;0.463936
29443;10.482151;-12.321903;-9.328990;-2.903913;-1.285847;1.971477;-0.604980;0.080566;0.437744;0.071493;0.385004;-0.807178;0.441728
29444;9.083042;-11.954059;-10.622634;-2.420007;-1.173027;1.508373;-0.591553;0.076660;0.445312;0.065856;0.377774;-0.821241;0.422507
29445;4.930356;-11.632507;-10.666679;-1.461070;-0.885720;0.994100;-0.572021;0.078613;0.464111;0.060953;0.373399;-0.829778;0.410277
29446;3.143987;-10.896669;-10.535818;-0.918039;-0.394911;0.707499;-0.578125;0.076172;0.464111;0.058723;0.369527;-0.835168;0.403107
29447;2.872056;-8.869659;-7.719688;-0.685356;-0.278280;0.427434;-0.573730;0.084717;0.478516;0.057522;0.367291;-0.838800;0.397749
29448;2.114674;-9.057060;-6.878478;-0.608006;0.101798;-0.206481;-0.574219;0.085449;0.478760;0.060837;0.368242;-0.840022;0.393775
29449;1.144611;-9.578681;-7.426600;-0.481054;0.608295;-0.844109;-0.574707;0.059570;0.470459;0.069394;0.372029;-0.838566;0.391901
29450;-0.101825;-9.863549;-7.876856;0.062577;1.106340;-1.376498;-0.590576;0.055176;0.469238;0.081467;0.378156;-0.833267;0.395003
29451;-1.069898;-8.728244;-7.480104;0.765089;1.534912;-1.871278;-0.607178;0.047363;0.459961;0.095894;0.386648;-0.823529;0.403866
29452;-1.774255;-7.232572;-6.283969;1.228992;1.871900;-2.374086;-0.618408;0.040283;0.446045;0.112762;0.397583;-0.809853;0.416354
29453;-2.037410;-6.333895;-5.316897;1.393361;2.144087;-2.873860;-0.638672;0.011475;0.421875;0.132545;0.410737;-0.792979;0.430012
29454;-1.987220;-6.038615;-4.873602;1.480374;2.294458;-3.254323;-0.656006;-0.006104;0.394531;0.154224;0.425480;-0.773423;0.443845
29455;-2.215735;-6.056334;-4.643611;1.603535;2.367970;-3.516342;-0.664795;-0.032959;0.384521;0.176692;0.441215;-0.751354;0.457796
29456;-2.728064;-6.011255;-4.532472;1.740368;2.461006;-3.755570;-0.683594;-0.065430;0.358398;0.199873;0.457610;-0.726608;0.471894
29457;-3.067072;-5.201559;-3.453611;1.722519;2.548789;-4.087278;-0.695312;-0.096680;0.330566;0.224605;0.474840;-0.699283;0.484853
29458;-2.246332;-4.248111;-1.911064;1.366224;2.624101;-4.525616;-0.699951;-0.145020;0.311523;0.252514;0.492727;-0.670184;0.494278
29459;0.487998;-4.783383;-2.471744;0.860700;2.861289;-4.950042;-0.700195;-0.194092;0.271484;0.285015;0.509859;-0.639473;0.499885
29460;3.166213;-6.476130;-4.528876;0.446349;3.271581;-5.175162;-0.700928;-0.259033;0.243408;0.321689;0.524228;-0.606986;0.503259
29461;4.558577;-6.898990;-6.210339;0.606186;3.585973;-5.218000;-0.687500;-0.312012;0.201904;0.358557;0.536491;-0.571163;0.507334
29462;4.645041;-4.907581;-2.342256;0.902239;3.220724;-5.374710;-0.661377;-0.359863;0.181885;0.392019;0.550419;-0.532895;0.509297
29463;9.473268;-2.267592;-1.473573;0.935150;2.675771;-5.183903;-0.646973;-0.412354;0.148926;0.421083;0.564480;-0.495760;0.508206
29464;14.812096;-0.054832;-0.614143;0.468055;2.338614;-4.245160;-0.613037;-0.457520;0.132812;0.446125;0.573302;-0.465191;0.505860
29465;13.692391;0.524242;0.660083;-0.529903;2.145383;-3.239836;-0.596436;-0.488770;0.104492;0.470347;0.574552;-0.443716;0.501777
29466;12.683385;2.286247;0.460689;-0.994987;1.912342;-2.064484;-0.592529;-0.512451;0.089355;0.490627;0.570120;-0.430352;0.499044
29467;10.582824;5.425767;3.432310;-0.934544;1.266501;-0.573061;-0.581543;-0.519775;0.067627;0.501905;0.563040;-0.426285;0.499357
29468;8.223560;2.136106;2.877732;-0.560243;0.392054;0.782602;-0.593750;-0.514160;0.060791;0.502615;0.556274;-0.430615;0.502502
29469;6.339924;-2.691589;-0.657025;-0.197956;-0.477748;1.848393;-0.602539;-0.490479;0.061523;0.493979;0.550750;-0.441935;0.507299
29470;11.454956;-5.108161;-7.365011;0.768383;-0.544949;1.984061;-0.622314;-0.471924;0.066162;0.479936;0.548825;-0.449944;0.515755
29471;20.768484;1.628440;-10.359762;1.892765;-0.421559;0.273698;-0.625732;-0.463867;0.105225;0.468412;0.557114;-0.444684;0.521987
29472;24.550191;5.482632;-4.371320;2.121151;-1.053662;0.806933;-0.635986;-0.455566;0.131836;0.450998;0.566879;-0.443228;0.528013
29473;14.199334;7.001930;-2.467216;1.057561;-1.140143;1.487748;-0.648682;-0.442383;0.146240;0.435123;0.570306;-0.449823;0.532051
29474;1.743619;-6.351321;0.114221;0.389199;-1.894292;1.478649;-0.646484;-0.419922;0.167725;0.419481;0.574485;-0.461901;0.529764
29475;2.152969;-15.822326;-2.176799;0.465029;-1.353910;1.204291;-0.657227;-0.409912;0.187256;0.406625;0.577405;-0.470299;0.529224
29476;4.711262;-11.757700;-2.858839;2.116518;-1.032202;1.264268;-0.660400;-0.387207;0.210693;0.386656;0.584038;-0.470459;0.536716
29477;12.215533;-4.340267;-1.326603;2.419596;-0.819716;1.273782;-0.677246;-0.362793;0.240479;0.365788;0.590339;-0.468390;0.546178
29478;13.259514;3.225068;-1.675422;0.613398;-0.075179;1.050400;-0.681641;-0.363525;0.244385;0.357600;0.588415;-0.471019;0.551389
29479;9.471848;4.067198;-2.378327;-1.200337;0.488020;1.180973;-0.691895;-0.346924;0.232910;0.359863;0.577898;-0.480863;0.552543
29480;7.737006;-2.683136;-3.925785;-2.049796;0.383298;1.321807;-0.693848;-0.335205;0.215332;0.365036;0.564573;-0.495452;0.550031
29481;7.309162;-8.617405;-2.381916;-1.284129;0.103905;1.268201;-0.704346;-0.322998;0.208740;0.365578;0.554894;-0.506974;0.549020
29482;7.000690;-9.024883;-0.285997;0.398978;-0.376021;0.880186;-0.706787;-0.316162;0.211914;0.358022;0.554087;-0.510396;0.551638
29483;9.597572;-5.513264;0.759294;1.553023;-0.807683;0.532649;-0.706299;-0.301270;0.232178;0.344838;0.560090;-0.508125;0.556053
29484;11.258735;-0.920048;0.429858;1.387726;-0.716583;0.548106;-0.706299;-0.291992;0.248291;0.332665;0.565006;-0.506323;0.560125
29485;11.215686;2.272596;-0.093856;0.250269;-0.269354;0.806820;-0.721191;-0.275879;0.248291;0.326487;0.563520;-0.509741;0.562152
29486;8.921892;0.289028;-0.931176;-0.800595;0.094350;0.968517;-0.723389;-0.268555;0.247803;0.326007;0.556742;-0.517803;0.561817
29487;8.265663;-2.908979;-2.139996;-1.036051;0.125828;0.963724;-0.725586;-0.272217;0.242676;0.326739;0.549129;-0.526791;0.560527
29488;8.490943;-5.291688;-2.307584;-0.450952;-0.103564;0.803146;-0.735352;-0.254395;0.236084;0.324502;0.544830;-0.532885;0.560261
29489;9.159833;-4.777233;-1.668915;0.362011;-0.428039;0.640370;-0.726807;-0.243896;0.248779;0.317871;0.544934;-0.535296;0.561662
29490;9.367359;-1.793403;-1.345031;0.666465;-0.535372;0.611033;-0.734375;-0.230469;0.254395;0.309494;0.546440;-0.536400;0.563819
29491;9.541483;-0.077231;-1.493831;0.279244;-0.375344;0.721755;-0.734619;-0.227051;0.260986;0.303056;0.545665;-0.539378;0.565223
29492;9.458815;-0.775627;-1.767083;-0.368773;-0.171354;0.861953;-0.740723;-0.220215;0.266846;0.299806;0.541635;-0.545497;0.564962
29493;9.171159;-2.580591;-2.194858;-0.734188;-0.083605;0.938076;-0.740723;-0.211182;0.261475;0.298222;0.535890;-0.553413;0.563578
29494;8.858118;-3.786192;-2.370989;-0.720121;-0.103305;0.951570;-0.739014;-0.201172;0.259766;0.296390;0.530157;-0.561316;0.562148
29495;8.615168;-3.836262;-2.333073;-0.509832;-0.175247;0.898168;-0.744141;-0.196289;0.262695;0.293516;0.525484;-0.568128;0.561200
29496;8.704013;-3.144898;-1.798371;-0.336758;-0.210828;0.867643;-0.746582;-0.184082;0.271729;0.289836;0.521506;-0.574045;0.560802
29497;9.148913;-2.236001;-1.477968;-0.348252;-0.208044;0.897506;-0.747803;-0.177490;0.258057;0.286060;0.517311;-0.580100;0.560395
29498;9.390108;-1.837596;-0.933123;-0.427520;-0.223894;0.988585;-0.750244;-0.169434;0.269043;0.282103;0.512522;-0.586909;0.559711
29499;9.776800;-1.771612;-0.442832;-0.457216;-0.288114;1.108665;-0.754883;-0.157471;0.271484;0.277373;0.507328;-0.594462;0.558836
29500;9.791689;-0.947766;0.185783;-0.359105;-0.416932;1.231065;-0.757812;-0.143066;0.271240;0.270990;0.502297;-0.602299;0.558121
29501;9.395242;0.349255;0.713290;-0.118851;-0.612980;1.313945;-0.753174;-0.121582;0.284912;0.262197;0.498237;-0.609720;0.557902
29502;9.437125;-0.438665;1.607172;0.187645;-0.833602;1.339163;-0.765137;-0.103760;0.299805;0.250856;0.495667;-0.616196;0.558290
29503;10.602693;-1.580355;1.680835;0.271984;-1.054752;1.475896;-0.757568;-0.084229;0.312988;0.237347;0.493501;-0.623173;0.558371
29504;11.074014;-1.203752;0.683448;0.006086;-1.188296;1.735185;-0.750488;-0.059326;0.328857;0.222972;0.489952;-0.632541;0.556886
29505;11.546237;-1.731113;-0.095479;-0.355599;-1.183271;1.900846;-0.747559;-0.049316;0.338623;0.209261;0.484676;-0.644035;0.553640
29506;12.879055;-2.498683;-0.957947;-0.585033;-1.233529;2.019467;-0.743408;-0.019775;0.354736;0.195585;0.478412;-0.656900;0.548954
29507;14.151924;-1.703026;-1.486961;-0.635503;-1.402495;2.142637;-0.734131;-0.000488;0.376221;0.180538;0.471955;-0.670461;0.543275
29508;16.306357;1.422941;-3.075892;-0.803197;-1.595346;2.264922;-0.734863;0.023682;0.395508;0.164432;0.465191;-0.685187;0.535796
29509;17.313479;6.659176;-3.325449;-1.162841;-1.660002;2.494324;-0.711670;0.047119;0.413574;0.148233;0.456625;-0.702045;0.525978
29510;15.311102;6.683608;-2.343778;-1.547920;-1.494048;2.643311;-0.703857;0.064453;0.432129;0.133722;0.445655;-0.720406;0.514319
29511;11.959215;2.670713;-1.884072;-2.144140;-1.302562;2.612036;-0.692871;0.077881;0.455566;0.122613;0.433021;-0.740367;0.499315
29512;9.609542;-2.037113;-2.785164;-2.348949;-1.145119;2.505857;-0.696777;0.087158;0.474365;0.113558;0.419792;-0.759959;0.483054
29513;9.124617;-6.856535;-5.399761;-2.569885;-1.137391;2.236004;-0.686768;0.087158;0.487793;0.106319;0.407656;-0.778803;0.464735
