// Start Time: Unknown
// Update Rate: 60.0Hz
// Filter Profile: human (46.1)
// Firmware Version: 4.4.0
PacketCounter;Acc_X;Acc_Y;Acc_Z;Gyr_X;Gyr_Y;Gyr_Z;Mag_X;Mag_Y;Mag_Z;Quat_q0;Quat_q1;Quat_q2;Quat_q3
28597;9.642619;-1.772983;-0.385541;0.183494;-0.004110;-0.057128;-0.607666;0.537842;-0.278809;0.641328;-0.389544;-0.606650;-0.262545
28598;9.626667;-1.674656;-0.405175;0.142912;-0.000999;-0.057824;-0.608643;0.536621;-0.276123;0.641660;-0.388490;-0.607155;-0.262128
28599;9.641983;-1.705457;-0.416785;0.123524;-0.012672;-0.058584;-0.615967;0.533447;-0.273193;0.641864;-0.387563;-0.607684;-0.261776
28600;9.686543;-1.717915;-0.286287;0.121910;-0.020334;-0.054284;-0.612549;0.534180;-0.270996;0.642035;-0.386680;-0.608234;-0.261384
28601;9.696684;-1.730789;-0.234799;0.091201;-0.000555;-0.044573;-0.610107;0.543701;-0.284912;0.642229;-0.385965;-0.608579;-0.261160
28602;9.737151;-1.743886;-0.217182;0.062003;0.000867;-0.031498;-0.611572;0.536133;-0.278076;0.642369;-0.385467;-0.608807;-0.261021
28603;9.690905;-1.766303;-0.293431;0.024200;0.022978;-0.020947;-0.611084;0.533447;-0.280029;0.642526;-0.385174;-0.608797;-0.261090
28604;9.577955;-1.871692;-0.479249;-0.006454;0.034800;-0.021870;-0.613281;0.542236;-0.274902;0.642646;-0.385013;-0.608656;-0.261359
28605;9.581000;-1.870335;-0.453891;0.043465;0.018110;-0.009724;-0.614502;0.529785;-0.273438;0.642866;-0.384691;-0.608676;-0.261247
28606;9.630522;-1.811593;-0.380368;0.056366;0.003006;-0.004069;-0.618896;0.526123;-0.282959;0.643060;-0.384371;-0.608786;-0.260982
28607;9.611731;-1.882821;-0.348187;0.080795;-0.002310;-0.009985;-0.612061;0.526123;-0.288330;0.643294;-0.383904;-0.608996;-0.260604
28608;9.695807;-1.873667;-0.272127;0.107056;-0.012929;0.001325;-0.609131;0.530518;-0.281494;0.643586;-0.383385;-0.609278;-0.259989
28609;9.741472;-1.769208;-0.312125;0.101258;0.000555;0.029128;-0.611816;0.529785;-0.281982;0.643995;-0.383011;-0.609377;-0.259292
28610;9.682359;-1.683982;-0.382134;0.051177;0.007473;0.051375;-0.608643;0.531494;-0.285889;0.644331;-0.383003;-0.609256;-0.258753
28611;9.560521;-1.765389;-0.493747;0.008203;0.019658;0.046811;-0.619385;0.536377;-0.284668;0.644577;-0.383172;-0.608997;-0.258501
28612;9.794283;-1.690792;-0.335773;-0.061915;0.035620;0.063488;-0.611572;0.528809;-0.287842;0.644706;-0.383776;-0.608455;-0.258559
28613;10.208696;-1.153427;0.425735;-0.305468;0.153540;0.134223;-0.612305;0.534180;-0.279785;0.644800;-0.385779;-0.606532;-0.259860
28614;10.203318;-0.929374;0.726666;-0.848719;0.401045;0.236799;-0.609131;0.541992;-0.281738;0.644631;-0.390592;-0.601730;-0.264217
28615;9.317437;-2.238524;-0.257376;-1.119874;0.551546;0.227541;-0.593994;0.547607;-0.272949;0.644311;-0.396341;-0.595466;-0.270550
28616;8.785238;-3.278642;-1.023103;-0.702600;0.387848;0.170093;-0.599609;0.553711;-0.272217;0.644373;-0.399966;-0.591148;-0.274508
28617;8.695816;-3.144707;-1.064136;-0.081671;0.052198;0.066952;-0.596436;0.554688;-0.272949;0.644595;-0.400631;-0.590371;-0.274689
28618;9.471977;-2.340776;-0.516702;0.294997;-0.176690;0.013439;-0.590576;0.547119;-0.273193;0.644795;-0.399676;-0.591860;-0.272396
28619;9.759127;-1.781111;-0.202241;0.264472;-0.119427;-0.007639;-0.597168;0.562256;-0.268555;0.645090;-0.398687;-0.593059;-0.270535
28620;9.565204;-1.847942;-0.529696;0.116607;-0.013215;-0.037944;-0.606445;0.553711;-0.270996;0.645370;-0.398097;-0.593442;-0.269893
28621;9.454971;-1.986460;-0.824290;0.052202;-0.022432;-0.063439;-0.603271;0.552490;-0.274658;0.645301;-0.397752;-0.593840;-0.269693
28622;9.541805;-2.123034;-1.037289;0.135584;-0.079780;-0.115035;-0.595947;0.554199;-0.270020;0.645064;-0.396850;-0.594939;-0.269165
28623;9.465899;-2.250052;-1.021378;0.341320;-0.172148;-0.126919;-0.600586;0.554443;-0.272705;0.644969;-0.395002;-0.597095;-0.267331
28624;9.271510;-2.067047;-0.602256;0.520343;-0.274107;-0.149134;-0.612305;0.551758;-0.281738;0.644866;-0.392380;-0.600260;-0.264337
28625;9.334538;-1.898645;-0.283280;0.563481;-0.330342;-0.208728;-0.605713;0.544678;-0.278320;0.644449;-0.389450;-0.603953;-0.261256
28626;9.263998;-1.531412;-0.359761;0.558061;-0.403122;-0.303082;-0.623291;0.533447;-0.284180;0.643460;-0.386084;-0.608343;-0.258489
28627;9.492583;-1.425217;-0.504695;0.511494;-0.525686;-0.407505;-0.625977;0.529297;-0.272949;0.641383;-0.382760;-0.613609;-0.256137
28628;9.727737;-1.472213;-0.553171;0.521114;-0.612562;-0.415679;-0.618408;0.528564;-0.275635;0.638856;-0.379432;-0.619401;-0.253451
28629;9.852449;-1.425252;-0.334450;0.489332;-0.627640;-0.365498;-0.629395;0.513184;-0.275146;0.636314;-0.376401;-0.624946;-0.250737
28630;10.031284;-1.512619;0.003676;0.381216;-0.519538;-0.285352;-0.640381;0.508789;-0.272705;0.634114;-0.374034;-0.629477;-0.248510
28631;10.149185;-1.574277;-0.080194;0.327099;-0.367621;-0.174291;-0.645752;0.504395;-0.271484;0.632762;-0.372268;-0.632683;-0.246460
28632;10.064200;-1.447806;-0.105419;0.293853;-0.198144;-0.090992;-0.633545;0.506348;-0.261963;0.632394;-0.370741;-0.634629;-0.244693
28633;9.850460;-1.381789;-0.465084;0.244734;-0.081129;-0.053259;-0.649902;0.501465;-0.270996;0.632712;-0.369238;-0.635709;-0.243337
28634;9.717480;-1.405331;-0.785174;0.184170;-0.055480;-0.038491;-0.638428;0.500244;-0.273438;0.632903;-0.368243;-0.636468;-0.242363
28635;9.599138;-1.492302;-0.980465;0.138174;-0.060463;-0.041592;-0.645752;0.503174;-0.276367;0.632998;-0.367326;-0.637166;-0.241674
28636;9.640658;-1.553059;-0.973640;0.140570;-0.081384;-0.044793;-0.651611;0.493896;-0.273193;0.632928;-0.366558;-0.637957;-0.240933
28637;9.735702;-1.474884;-0.746143;0.089441;-0.051510;-0.023394;-0.643066;0.496826;-0.272461;0.632848;-0.366063;-0.638517;-0.240410
28638;9.728203;-1.468256;-0.737481;0.038572;-0.005673;-0.014118;-0.641846;0.494873;-0.273682;0.632932;-0.365746;-0.638675;-0.240253
28639;9.659757;-1.526457;-0.850332;0.001259;0.009740;-0.010397;-0.643799;0.501465;-0.274902;0.633000;-0.365586;-0.638669;-0.240332
28640;9.617774;-1.569708;-0.842940;0.007012;-0.015145;-0.011390;-0.642578;0.498779;-0.275146;0.632945;-0.365541;-0.638756;-0.240315
28641;9.652327;-1.743135;-0.849214;0.053552;-0.031533;-0.026639;-0.646729;0.494629;-0.277344;0.632917;-0.365167;-0.639087;-0.240076
28642;9.651471;-1.729022;-0.746672;0.151144;-0.037665;-0.041217;-0.645752;0.497559;-0.275146;0.633111;-0.364202;-0.639708;-0.239378
28643;9.694653;-1.723507;-0.702167;0.178913;-0.030981;-0.033002;-0.649170;0.499268;-0.276123;0.633443;-0.363172;-0.640298;-0.238484
28644;9.667191;-1.653678;-0.781555;0.193465;-0.017110;-0.008977;-0.654053;0.504639;-0.276367;0.633933;-0.362217;-0.640747;-0.237425
28645;9.693053;-1.479079;-0.831532;0.168386;-0.033354;0.000179;-0.646484;0.493896;-0.275146;0.634255;-0.361574;-0.641171;-0.236402
28646;9.718368;-1.450919;-0.901782;0.130847;-0.036296;-0.004541;-0.647217;0.493896;-0.278320;0.634452;-0.360952;-0.641628;-0.235580
28647;9.690988;-1.469960;-0.878815;0.122247;-0.041143;-0.001143;-0.649658;0.478271;-0.283203;0.634609;-0.360407;-0.642070;-0.234788
28648;9.620383;-1.530865;-0.796804;0.096328;-0.058951;0.035088;-0.642822;0.493652;-0.275391;0.634665;-0.360030;-0.642543;-0.233918
28649;9.627074;-1.477463;-0.639581;0.067237;-0.061041;0.063589;-0.652832;0.492188;-0.271973;0.634669;-0.360169;-0.642794;-0.233000
28650;9.589055;-1.444832;-0.703960;0.043945;-0.033319;0.042398;-0.646484;0.496338;-0.281494;0.634639;-0.360278;-0.642968;-0.232433
28651;9.696261;-1.501561;-0.745950;0.053779;-0.028127;0.008760;-0.647217;0.500000;-0.272949;0.634703;-0.360135;-0.643136;-0.232014
28652;9.655045;-1.521262;-0.802957;0.080590;-0.015234;-0.025947;-0.639404;0.494141;-0.280273;0.634785;-0.359722;-0.643413;-0.231661
28653;9.631878;-1.490662;-0.810917;0.057120;-0.015120;-0.045277;-0.656250;0.492188;-0.285889;0.634848;-0.359218;-0.643679;-0.231532
28654;9.754899;-1.400692;-0.780518;0.052059;0.023959;-0.103795;-0.643555;0.489990;-0.283447;0.634949;-0.358334;-0.643934;-0.231917
28655;9.696392;-1.837610;-1.166550;0.071225;0.038773;-0.100833;-0.647217;0.485107;-0.276367;0.635233;-0.357316;-0.644122;-0.232187
28656;9.613997;-1.935637;-1.022256;0.203792;0.022509;-0.050736;-0.647217;0.484131;-0.278564;0.635828;-0.355905;-0.644594;-0.231415
28657;9.676009;-1.632510;-0.834323;0.187031;0.047917;-0.023724;-0.654297;0.485840;-0.281250;0.636560;-0.354703;-0.644807;-0.230652
28658;9.608910;-1.441598;-0.851948;0.150935;0.031110;-0.051979;-0.656494;0.485107;-0.286377;0.637011;-0.353612;-0.645121;-0.230204
28659;9.724109;-1.420566;-0.739840;0.066698;0.011880;-0.076699;-0.644043;0.483643;-0.285645;0.637083;-0.352855;-0.645433;-0.230293
28660;9.786564;-1.625692;-0.831475;0.007600;0.011073;-0.049743;-0.650391;0.487061;-0.286865;0.637085;-0.352564;-0.645510;-0.230517
28661;9.727435;-1.551023;-0.749173;-0.019886;0.011394;-0.027347;-0.647217;0.480469;-0.288086;0.637028;-0.352592;-0.645454;-0.230788
28662;9.652888;-1.478196;-0.845530;-0.033002;-0.010935;-0.019719;-0.644287;0.489014;-0.288330;0.636859;-0.352667;-0.645500;-0.231011
28663;9.727703;-1.367065;-0.753941;-0.070294;-0.046211;-0.007140;-0.648438;0.481445;-0.281982;0.636436;-0.353214;-0.645531;-0.231255
28664;9.749554;-1.372871;-0.744556;-0.091223;-0.031697;-0.000391;-0.647461;0.484619;-0.280273;0.635966;-0.353780;-0.645548;-0.231636
28665;9.758727;-1.281824;-0.648996;-0.098354;0.009256;-0.017510;-0.646973;0.482422;-0.282471;0.635660;-0.354263;-0.645356;-0.232270
28666;9.716402;-1.490259;-0.683408;-0.183889;0.046213;0.010924;-0.652588;0.492432;-0.282715;0.635393;-0.355211;-0.644718;-0.233326
28667;9.577653;-1.636378;-0.786170;-0.169746;0.058250;0.027968;-0.652100;0.487061;-0.282715;0.635243;-0.356282;-0.643930;-0.234274
28668;9.539360;-1.578854;-0.831734;-0.128969;0.027073;0.017091;-0.646240;0.494873;-0.270996;0.635037;-0.357022;-0.643473;-0.234961
28669;9.674110;-1.606981;-0.844240;-0.094265;-0.001059;0.010795;-0.649658;0.491699;-0.278809;0.634675;-0.357827;-0.643222;-0.235400
28670;9.785067;-1.645241;-0.905417;-0.072931;0.011216;0.001614;-0.647461;0.484863;-0.278564;0.634503;-0.358301;-0.642976;-0.235815
28671;9.713687;-1.640237;-1.006962;-0.039272;0.031685;-0.006651;-0.648193;0.487793;-0.278320;0.634546;-0.358384;-0.642771;-0.236132
28672;9.740907;-1.547153;-0.947088;-0.013617;0.031242;-0.016410;-0.651123;0.485596;-0.281982;0.634629;-0.358338;-0.642628;-0.236367
28673;9.689192;-1.555577;-0.954880;-0.030717;0.024442;-0.007214;-0.647461;0.490479;-0.288330;0.634666;-0.358368;-0.642479;-0.236626
28674;9.695160;-1.504107;-0.913505;-0.043847;0.011198;-0.005025;-0.648682;0.493652;-0.284180;0.634686;-0.358558;-0.642255;-0.236893
28675;9.611191;-1.550070;-0.949316;-0.042879;0.013482;-0.007758;-0.650391;0.492920;-0.283203;0.634655;-0.358808;-0.642038;-0.237185
28676;9.623588;-1.527453;-0.856525;0.005101;0.003571;-0.014763;-0.654785;0.490479;-0.280029;0.634680;-0.358772;-0.642016;-0.237233
28677;9.645264;-1.490204;-0.744818;0.000687;0.005286;-0.019167;-0.643066;0.487549;-0.273438;0.634630;-0.358701;-0.642064;-0.237345
28678;9.659715;-1.550799;-0.690415;0.007566;0.019444;-0.029720;-0.642822;0.492188;-0.274902;0.634649;-0.358553;-0.642078;-0.237479
28679;9.666758;-1.636469;-0.757844;0.012911;0.029786;-0.027804;-0.652588;0.492432;-0.275879;0.634758;-0.358455;-0.641976;-0.237612
28680;9.679879;-1.574925;-0.765611;0.035684;0.044361;-0.027002;-0.652344;0.493408;-0.290283;0.634967;-0.358176;-0.641895;-0.237692
28681;9.624646;-1.472812;-0.814028;0.055682;0.046088;-0.027676;-0.652588;0.489258;-0.280518;0.635404;-0.357710;-0.641726;-0.237682
28682;9.671547;-1.391999;-0.804784;0.082156;0.044981;-0.036337;-0.649170;0.488281;-0.286865;0.635774;-0.357063;-0.641766;-0.237559
28683;9.720813;-1.559420;-0.879669;0.115663;0.058650;-0.056249;-0.649170;0.493164;-0.287354;0.636356;-0.356077;-0.641796;-0.237399
28684;9.602995;-1.593878;-0.855278;0.203101;0.055146;-0.083661;-0.645020;0.482666;-0.279785;0.637103;-0.354613;-0.642045;-0.236914
28685;9.737975;-1.488204;-0.772400;0.230191;0.049355;-0.079601;-0.652588;0.481934;-0.284912;0.637831;-0.352943;-0.642506;-0.236195
28686;9.634158;-1.175930;-0.600777;0.159917;0.026712;-0.058733;-0.655029;0.479980;-0.293457;0.638258;-0.351782;-0.642899;-0.235705
28687;9.668002;-1.112162;-0.540535;0.030759;0.015668;-0.041948;-0.642090;0.476318;-0.290039;0.638349;-0.351349;-0.643008;-0.235807
28688;9.719546;-1.248412;-0.467512;-0.090728;0.003092;-0.014147;-0.640381;0.486328;-0.296143;0.638113;-0.351743;-0.642836;-0.236325
28689;9.816661;-1.500949;-0.525091;-0.172233;0.017054;-0.005670;-0.648682;0.491455;-0.282715;0.637806;-0.352745;-0.642232;-0.237302
28690;9.716129;-1.643199;-0.628173;-0.179168;0.041352;-0.005945;-0.652100;0.489990;-0.291260;0.637409;-0.353868;-0.641597;-0.238412
28691;9.605273;-1.904020;-0.838199;-0.143451;0.048567;-0.007567;-0.643799;0.481934;-0.288574;0.637243;-0.354653;-0.640966;-0.239384
28692;9.599213;-1.958722;-0.947500;-0.016377;0.018841;-0.007586;-0.649414;0.482178;-0.282959;0.637334;-0.354689;-0.640802;-0.239528
28693;9.677591;-1.555406;-0.752484;0.051160;0.010675;-0.000455;-0.656982;0.483643;-0.290039;0.637497;-0.354438;-0.640884;-0.239246
28694;9.650853;-1.286218;-0.724923;0.018623;0.009795;0.000096;-0.648193;0.490723;-0.291504;0.637585;-0.354332;-0.640881;-0.239176
28695;9.666665;-1.239614;-0.676090;-0.030711;0.000670;-0.001124;-0.647217;0.486084;-0.288086;0.637530;-0.354677;-0.640682;-0.239347
28696;9.723611;-1.361796;-0.701133;-0.092271;0.018440;0.005797;-0.650391;0.482178;-0.291260;0.637378;-0.355266;-0.640322;-0.239840
28697;9.622723;-1.536351;-0.793383;-0.090151;0.014484;0.004880;-0.645996;0.488770;-0.290283;0.637236;-0.355718;-0.640029;-0.240327
28698;9.672005;-1.653423;-0.806958;-0.052277;0.014082;-0.004193;-0.647705;0.486572;-0.290527;0.637196;-0.356069;-0.639750;-0.240657
28699;9.585795;-1.700736;-0.862439;0.005344;0.024344;-0.015668;-0.636230;0.485107;-0.283203;0.637356;-0.355973;-0.639601;-0.240772
28700;9.634907;-1.619381;-0.838796;0.067573;-0.004277;-0.037133;-0.659180;0.482178;-0.286621;0.637493;-0.355547;-0.639799;-0.240512
28701;9.763846;-1.409248;-0.647219;0.054476;-0.025368;-0.029943;-0.656494;0.480225;-0.283936;0.637392;-0.355116;-0.640219;-0.240299
28702;9.737563;-1.367504;-0.551019;-0.003286;0.004468;-0.026654;-0.647217;0.485352;-0.279785;0.637277;-0.354950;-0.640371;-0.240445
28703;9.647109;-1.432776;-0.659455;-0.030377;0.005722;-0.016919;-0.643311;0.490479;-0.286621;0.637112;-0.355151;-0.640341;-0.240665
28704;9.769713;-1.349907;-0.608227;-0.030933;0.006370;0.005790;-0.654297;0.497559;-0.287842;0.637088;-0.355557;-0.640092;-0.240790
28705;9.798288;-1.223134;-0.636398;-0.037485;0.028613;0.019160;-0.642334;0.479492;-0.290039;0.637128;-0.356103;-0.639667;-0.241009
28706;9.623310;-1.245022;-0.761872;-0.081940;0.030387;0.017556;-0.653076;0.484131;-0.286865;0.637168;-0.356518;-0.639251;-0.241391
28707;9.532081;-1.430231;-0.917141;-0.087694;0.021114;0.000033;-0.640381;0.482666;-0.288330;0.637000;-0.356942;-0.638985;-0.241911
28708;9.607209;-1.437815;-0.845131;-0.057470;-0.004221;0.003830;-0.642578;0.485352;-0.290283;0.636893;-0.357279;-0.638821;-0.242130
28709;9.649843;-1.446687;-0.759207;-0.046705;-0.005957;-0.000081;-0.651123;0.484863;-0.289062;0.636805;-0.357568;-0.638671;-0.242330
28710;9.654264;-1.480957;-0.781310;-0.030512;-0.001944;-0.011905;-0.653076;0.494629;-0.279785;0.636703;-0.357655;-0.638642;-0.242544
28711;9.621777;-1.510890;-0.756474;0.000446;-0.021607;-0.005768;-0.649414;0.489746;-0.281250;0.636480;-0.357882;-0.638753;-0.242505
28712;9.793812;-1.430509;-0.674230;0.007021;-0.022569;-0.003497;-0.648438;0.496094;-0.283691;0.636326;-0.357994;-0.638886;-0.242395
28713;9.774981;-1.421216;-0.673726;0.006015;-0.006552;-0.011200;-0.649658;0.488037;-0.283691;0.636261;-0.358157;-0.638854;-0.242405
28714;9.717211;-1.584461;-0.816716;0.023732;0.001682;-0.013961;-0.643799;0.485596;-0.284424;0.636297;-0.358023;-0.638918;-0.242341
28715;9.583477;-1.507879;-0.786285;0.034503;0.002859;-0.010554;-0.648682;0.486572;-0.282471;0.636424;-0.357824;-0.638966;-0.242176
28716;9.726897;-1.481790;-0.735630;0.022945;-0.003385;-0.010861;-0.652344;0.489746;-0.284180;0.636428;-0.357710;-0.639067;-0.242067
28717;9.739410;-1.435249;-0.707312;0.004206;0.002886;-0.004511;-0.647705;0.489746;-0.279297;0.636411;-0.357766;-0.639050;-0.242075
28718;9.756509;-1.394327;-0.709593;-0.013031;0.019616;-0.001637;-0.648438;0.485107;-0.284180;0.636418;-0.357928;-0.638915;-0.242172
28719;9.602846;-1.244211;-0.645044;-0.036214;0.026847;0.005925;-0.655273;0.486084;-0.281494;0.636461;-0.358119;-0.638686;-0.242381
28720;9.617209;-1.332661;-0.672933;-0.078017;0.025491;-0.000712;-0.649902;0.493164;-0.280762;0.636292;-0.358495;-0.638461;-0.242862
28721;9.679768;-1.587170;-0.736394;-0.051387;0.010598;-0.002792;-0.645508;0.485352;-0.281982;0.636133;-0.358906;-0.638269;-0.243176
28722;9.746297;-1.578422;-0.694568;-0.018904;0.001403;-0.000116;-0.645752;0.483643;-0.280518;0.636086;-0.359020;-0.638230;-0.243233
28723;9.716648;-1.620410;-0.773261;-0.001329;-0.006987;-0.008702;-0.646973;0.486084;-0.277100;0.636020;-0.358980;-0.638328;-0.243206
28724;9.600635;-1.625762;-0.849572;0.044836;-0.004450;-0.009100;-0.640869;0.496826;-0.277344;0.636059;-0.358754;-0.638513;-0.242949
28725;9.612256;-1.482350;-0.803194;0.079491;-0.013946;-0.005671;-0.648193;0.488770;-0.288330;0.636169;-0.358636;-0.638645;-0.242490
28726;9.650270;-1.382011;-0.760499;0.057998;-0.013999;-0.010643;-0.655273;0.495850;-0.282959;0.636283;-0.358365;-0.638796;-0.242193
28727;9.733671;-1.417492;-0.783579;0.031719;-0.007565;-0.015145;-0.644043;0.491455;-0.275146;0.636233;-0.358342;-0.638889;-0.242114
28728;9.709666;-1.390400;-0.790884;0.035481;0.000448;-0.012030;-0.651367;0.493896;-0.277588;0.636244;-0.358282;-0.638980;-0.241936
28729;9.607635;-1.288808;-0.693887;0.025458;-0.004498;-0.010591;-0.658203;0.489746;-0.281250;0.636176;-0.358308;-0.639071;-0.241834
28730;9.659375;-1.282471;-0.587780;0.000568;-0.011245;-0.006187;-0.651367;0.480225;-0.277588;0.636014;-0.358377;-0.639193;-0.241836
28731;9.766627;-1.404699;-0.581284;-0.030169;-0.007235;-0.008408;-0.653076;0.483154;-0.285889;0.635814;-0.358418;-0.639332;-0.241934
28732;9.718162;-1.523707;-0.717538;-0.036604;0.003018;-0.008208;-0.650146;0.477783;-0.286133;0.635709;-0.358511;-0.639298;-0.242162
28733;9.713303;-1.443781;-0.750763;-0.038185;0.009368;-0.003879;-0.646729;0.486816;-0.280273;0.635678;-0.358518;-0.639251;-0.242357
28734;9.658232;-1.338653;-0.734718;-0.053322;0.007005;-0.000240;-0.651611;0.489258;-0.275146;0.635538;-0.358856;-0.639098;-0.242629
28735;9.725658;-1.427043;-0.711077;-0.097392;0.013598;-0.001553;-0.648682;0.487793;-0.288330;0.635221;-0.359452;-0.638868;-0.243178
28736;9.633358;-1.780768;-0.843103;-0.089848;0.016181;-0.016041;-0.653320;0.490234;-0.279297;0.635065;-0.359827;-0.638581;-0.243785
28737;9.584747;-1.904652;-0.885312;0.028234;-0.019388;-0.014999;-0.645264;0.496582;-0.284424;0.634964;-0.359724;-0.638789;-0.243654
28738;9.652530;-1.614483;-0.727818;0.094571;-0.022644;-0.003257;-0.649902;0.486084;-0.282471;0.635146;-0.359477;-0.638953;-0.243114
28739;9.726339;-1.304966;-0.666302;0.089408;-0.019274;-0.006708;-0.653076;0.488770;-0.282471;0.635300;-0.359024;-0.639255;-0.242587
28740;9.727239;-1.316544;-0.624748;0.055700;-0.008562;-0.009941;-0.653564;0.484375;-0.287598;0.635376;-0.358762;-0.639430;-0.242315
28741;9.766529;-1.453178;-0.730207;0.007445;0.012328;-0.014248;-0.644287;0.494385;-0.276855;0.635459;-0.358592;-0.639417;-0.242383
28742;9.611597;-1.552347;-0.794884;0.011923;0.006643;-0.014219;-0.649902;0.490967;-0.281250;0.635456;-0.358680;-0.639367;-0.242392
28743;9.661674;-1.552459;-0.759744;0.027030;-0.000562;-0.004261;-0.653320;0.484131;-0.278320;0.635496;-0.358654;-0.639391;-0.242263
28744;9.657471;-1.486086;-0.749126;0.020210;0.014482;0.000835;-0.642578;0.483154;-0.283691;0.635580;-0.358523;-0.639423;-0.242151
28745;9.551458;-1.515366;-0.845181;0.041746;-0.004374;-0.008023;-0.655029;0.489014;-0.281006;0.635710;-0.358274;-0.639530;-0.241896
28746;9.631918;-1.454415;-0.703342;0.085788;-0.023997;-0.005895;-0.646729;0.486572;-0.280273;0.635767;-0.357929;-0.639856;-0.241397
28747;9.695172;-1.299622;-0.646656;0.073458;-0.011815;-0.004380;-0.647705;0.484619;-0.288330;0.635894;-0.357626;-0.640066;-0.240953
28748;9.701056;-1.340862;-0.719487;0.035119;-0.003412;-0.010309;-0.655518;0.487793;-0.287354;0.636004;-0.357413;-0.640138;-0.240787
28749;9.740213;-1.392157;-0.766134;0.023738;-0.011402;-0.013132;-0.654541;0.484863;-0.280518;0.635973;-0.357304;-0.640257;-0.240714
28750;9.806964;-1.351416;-0.736440;-0.002811;0.006023;-0.006491;-0.650879;0.496582;-0.281494;0.635924;-0.357312;-0.640284;-0.240759
28751;9.738531;-1.488072;-0.802408;-0.025749;0.019236;-0.006523;-0.647705;0.482666;-0.286377;0.635878;-0.357643;-0.640049;-0.241015
28752;9.604539;-1.528813;-0.819599;-0.000814;0.008487;-0.006116;-0.648438;0.488770;-0.283447;0.635939;-0.357592;-0.640007;-0.241042
28753;9.595541;-1.547711;-0.742855;-0.004098;0.005284;-0.008915;-0.650391;0.488770;-0.276367;0.635924;-0.357674;-0.639949;-0.241113
28754;9.628087;-1.575395;-0.746355;0.031162;-0.004231;-0.017769;-0.647705;0.486816;-0.280762;0.635880;-0.357552;-0.640106;-0.240995
28755;9.702586;-1.482364;-0.656297;0.053506;-0.004696;-0.022873;-0.647217;0.483887;-0.288818;0.635943;-0.357251;-0.640291;-0.240782
28756;9.762089;-1.343398;-0.648137;0.030309;0.016016;-0.024562;-0.653564;0.486084;-0.285156;0.636115;-0.356954;-0.640288;-0.240776
28757;9.714596;-1.371099;-0.815214;0.030274;0.006791;-0.008196;-0.656006;0.479980;-0.283203;0.636200;-0.356802;-0.640326;-0.240675
28758;9.826473;-1.326438;-0.717956;0.003319;0.003621;-0.005587;-0.647461;0.486816;-0.287354;0.636180;-0.356699;-0.640409;-0.240661
28759;9.639710;-1.545111;-0.813719;-0.021292;0.025281;-0.007176;-0.654541;0.490234;-0.279053;0.636256;-0.356819;-0.640185;-0.240877
28760;9.657052;-1.681270;-0.838926;0.022604;0.015220;-0.007521;-0.650635;0.480225;-0.288330;0.636300;-0.356786;-0.640173;-0.240841
28761;9.606033;-1.495271;-0.793932;0.032638;0.008131;-0.011037;-0.652100;0.487793;-0.293213;0.636442;-0.356500;-0.640239;-0.240715
28762;9.621715;-1.355275;-0.780512;0.032041;-0.009664;-0.015425;-0.649902;0.487305;-0.287354;0.636487;-0.356356;-0.640308;-0.240623
28763;9.733312;-1.371151;-0.661493;0.007085;-0.003771;-0.003482;-0.642822;0.484619;-0.284668;0.636479;-0.356415;-0.640297;-0.240590
28764;9.686353;-1.473776;-0.765152;0.009450;0.001231;-0.004675;-0.655273;0.476807;-0.283691;0.636522;-0.356422;-0.640276;-0.240518
28765;9.663708;-1.441200;-0.701001;0.024692;-0.018620;-0.002194;-0.652344;0.479736;-0.287842;0.636460;-0.356227;-0.640532;-0.240290
28766;9.747040;-1.477823;-0.724859;0.015930;-0.010050;-0.001913;-0.651855;0.483887;-0.276123;0.636457;-0.356118;-0.640647;-0.240155
28767;9.662215;-1.503539;-0.847586;0.024609;-0.005804;-0.005805;-0.646973;0.486572;-0.284424;0.636397;-0.356051;-0.640803;-0.239995
28768;9.659483;-1.429595;-0.766890;0.024421;-0.007433;-0.002196;-0.654053;0.482178;-0.282959;0.636417;-0.356041;-0.640850;-0.239830
28769;9.739254;-1.411639;-0.738237;-0.001431;0.004639;0.001766;-0.652832;0.486572;-0.285156;0.636397;-0.356074;-0.640857;-0.239816
28770;9.738384;-1.430329;-0.768361;-0.000812;0.000397;-0.003794;-0.661133;0.482666;-0.281494;0.636359;-0.356153;-0.640843;-0.239839
28771;9.764809;-1.417168;-0.698556;-0.021449;0.015539;-0.001253;-0.644775;0.486816;-0.285156;0.636288;-0.356245;-0.640801;-0.240002
28772;9.553493;-1.494534;-0.753524;-0.017965;0.024467;-0.008801;-0.649658;0.482666;-0.283447;0.636357;-0.356363;-0.640597;-0.240191
28773;9.602724;-1.512945;-0.747781;0.023361;0.000472;-0.007641;-0.650391;0.483154;-0.286377;0.636395;-0.356234;-0.640675;-0.240071
28774;9.696440;-1.349592;-0.653675;0.032198;-0.002128;-0.004414;-0.652588;0.482910;-0.297363;0.636469;-0.356078;-0.640756;-0.239890
28775;9.779297;-1.403803;-0.704992;0.011880;0.009983;-0.015336;-0.647217;0.483643;-0.281982;0.636598;-0.355900;-0.640708;-0.239941
28776;9.683277;-1.564741;-0.815597;0.013393;0.027139;-0.021024;-0.650635;0.485352;-0.284180;0.636715;-0.355738;-0.640652;-0.240021
28777;9.664386;-1.542158;-0.850539;0.028628;0.026084;-0.018638;-0.651855;0.484375;-0.282715;0.636870;-0.355527;-0.640612;-0.240027
28778;9.620325;-1.469421;-0.811120;0.036194;0.015393;-0.021134;-0.656250;0.486816;-0.285645;0.636968;-0.355275;-0.640676;-0.239971
28779;9.684935;-1.365363;-0.655583;0.028781;0.004146;-0.009737;-0.652100;0.481934;-0.283203;0.636999;-0.355172;-0.640731;-0.239892
28780;9.666262;-1.355976;-0.652138;0.009191;0.001395;-0.009644;-0.655029;0.484375;-0.290039;0.636969;-0.355118;-0.640800;-0.239867
28781;9.730242;-1.463086;-0.678957;0.005029;-0.015879;-0.008984;-0.648682;0.489014;-0.284180;0.636868;-0.355135;-0.640899;-0.239847
28782;9.688499;-1.496310;-0.713837;-0.005615;0.003193;-0.005023;-0.653809;0.488525;-0.285400;0.636823;-0.355306;-0.640826;-0.239910
28783;9.663267;-1.564350;-0.852611;-0.003978;0.010156;-0.002518;-0.652832;0.483643;-0.290771;0.636813;-0.355439;-0.640733;-0.239987
28784;9.643754;-1.469895;-0.789414;0.023886;0.006892;0.000150;-0.651611;0.476074;-0.279785;0.636925;-0.355349;-0.640712;-0.239878
28785;9.696713;-1.273318;-0.679366;-0.000271;0.010459;0.005634;-0.649414;0.483643;-0.293457;0.636942;-0.355314;-0.640744;-0.239801
28786;9.681771;-1.412002;-0.690476;-0.036037;0.007179;0.000417;-0.649414;0.484375;-0.281738;0.636912;-0.355540;-0.640572;-0.240003
28787;9.675545;-1.565834;-0.672491;-0.018101;-0.007726;-0.004400;-0.650635;0.482910;-0.294678;0.636763;-0.355719;-0.640596;-0.240069
28788;9.662220;-1.648419;-0.761632;0.017219;-0.000796;-0.010201;-0.647705;0.479736;-0.289795;0.636836;-0.355594;-0.640610;-0.240023
28789;9.632355;-1.544202;-0.803858;0.071915;-0.014849;-0.011272;-0.651367;0.481445;-0.287842;0.636978;-0.355175;-0.640856;-0.239611
28790;9.696230;-1.289143;-0.710960;0.093971;-0.013892;-0.005448;-0.651611;0.488770;-0.283447;0.637165;-0.354703;-0.641134;-0.239070
28791;9.752193;-1.135306;-0.695074;0.027647;0.007276;-0.002829;-0.645020;0.490234;-0.286133;0.637222;-0.354695;-0.641122;-0.238960
28792;9.763643;-1.334557;-0.737047;-0.044088;0.022528;-0.011060;-0.652344;0.477051;-0.287842;0.637175;-0.355022;-0.640855;-0.239316
28793;9.665937;-1.599947;-0.789437;-0.070569;0.032900;-0.016210;-0.654053;0.483154;-0.285156;0.637104;-0.355202;-0.640634;-0.239830
28794;9.541556;-1.791670;-0.851854;-0.008222;0.021186;-0.015680;-0.650879;0.486816;-0.294189;0.637118;-0.355177;-0.640568;-0.240005
28795;9.661558;-1.564259;-0.669857;0.062970;-0.011560;-0.009018;-0.645264;0.480225;-0.291260;0.637249;-0.354915;-0.640699;-0.239695
28796;9.775816;-1.395348;-0.601262;0.051681;-0.005569;-0.010694;-0.655029;0.481689;-0.294678;0.637390;-0.354614;-0.640830;-0.239415
28797;9.695529;-1.401360;-0.672230;0.036690;-0.004687;-0.008123;-0.649414;0.483643;-0.294189;0.637471;-0.354406;-0.640926;-0.239253
28798;9.781611;-1.394208;-0.727194;0.004702;0.006339;-0.004066;-0.650635;0.479736;-0.294678;0.637539;-0.354413;-0.640851;-0.239261
28799;9.664157;-1.335517;-0.773213;-0.012588;0.016252;0.000833;-0.657471;0.484863;-0.282959;0.637623;-0.354456;-0.640709;-0.239355
28800;9.682368;-1.287288;-0.703099;-0.037316;0.013725;0.001262;-0.644043;0.491943;-0.290283;0.637504;-0.354731;-0.640588;-0.239584
28801;9.698873;-1.523002;-0.765221;-0.059295;0.025445;-0.003267;-0.650879;0.480713;-0.279053;0.637469;-0.355180;-0.640221;-0.239996
28802;9.668120;-1.669860;-0.781790;-0.017006;0.021981;-0.010354;-0.649414;0.482666;-0.288086;0.637449;-0.355209;-0.640169;-0.240145
28803;9.691362;-1.564544;-0.765641;0.027984;0.021987;-0.013466;-0.646484;0.488037;-0.284180;0.637615;-0.354996;-0.640137;-0.240104
28804;9.655229;-1.448237;-0.720410;0.033453;0.009820;-0.008111;-0.647705;0.493164;-0.290283;0.637716;-0.354908;-0.640133;-0.239975
28805;9.720482;-1.320935;-0.629774;0.027785;0.005588;-0.005320;-0.648438;0.486816;-0.291992;0.637805;-0.354936;-0.640059;-0.239896
28806;9.716932;-1.340119;-0.678597;-0.014566;0.017847;-0.006285;-0.647461;0.481934;-0.286865;0.637848;-0.355062;-0.639883;-0.240064
28807;9.635847;-1.475422;-0.772188;-0.009923;0.017498;-0.008175;-0.649658;0.489502;-0.289551;0.637884;-0.355083;-0.639797;-0.240167
28808;9.651462;-1.378070;-0.704170;0.010258;0.004220;-0.001949;-0.649414;0.486084;-0.289307;0.637911;-0.355166;-0.639732;-0.240148
28809;9.729293;-1.291489;-0.645903;-0.019585;0.008636;-0.003388;-0.651855;0.486084;-0.285889;0.637876;-0.355338;-0.639618;-0.240288
28810;9.773696;-1.458846;-0.715731;-0.034898;0.022144;-0.012191;-0.652832;0.487549;-0.282959;0.637822;-0.355511;-0.639462;-0.240589
28811;9.708262;-1.465660;-0.754411;-0.004674;0.024341;-0.019060;-0.648682;0.481689;-0.292725;0.637834;-0.355502;-0.639388;-0.240769
28812;9.608730;-1.405286;-0.748710;-0.015365;0.026400;-0.023573;-0.652588;0.482666;-0.285156;0.637898;-0.355435;-0.639260;-0.241038
28813;9.602964;-1.575630;-0.758217;-0.023843;0.004888;-0.012036;-0.651367;0.484863;-0.292969;0.637786;-0.355531;-0.639254;-0.241207
28814;9.659952;-1.442716;-0.657545;-0.017866;0.004241;-0.008566;-0.655762;0.485107;-0.283936;0.637738;-0.355648;-0.639176;-0.241369
28815;9.697582;-1.475836;-0.692632;-0.020913;0.005262;-0.010401;-0.654053;0.485840;-0.286377;0.637618;-0.355767;-0.639168;-0.241533
28816;9.663353;-1.377332;-0.660960;-0.015913;-0.003658;-0.007682;-0.654785;0.481934;-0.298340;0.637490;-0.355905;-0.639178;-0.241640
28817;9.731380;-1.372784;-0.671526;-0.028145;0.007050;-0.006064;-0.651367;0.483643;-0.288086;0.637456;-0.356031;-0.639054;-0.241874
28818;9.761308;-1.462300;-0.670822;-0.031988;0.011822;-0.012780;-0.648438;0.479980;-0.287598;0.637380;-0.356163;-0.638959;-0.242129
28819;9.697341;-1.555436;-0.769571;-0.029944;0.027717;-0.016729;-0.649170;0.494385;-0.291260;0.637406;-0.356178;-0.638818;-0.242409
28820;9.622027;-1.490194;-0.768722;-0.004957;0.013428;-0.017841;-0.642822;0.478271;-0.287109;0.637413;-0.356296;-0.638667;-0.242616
28821;9.689120;-1.489711;-0.683403;-0.032925;0.002494;-0.010623;-0.648438;0.479492;-0.289551;0.637332;-0.356391;-0.638635;-0.242773
28822;9.675177;-1.595812;-0.707249;-0.029805;0.014151;-0.007443;-0.649902;0.480957;-0.290527;0.637318;-0.356474;-0.638529;-0.242968
28823;9.659825;-1.505872;-0.676139;-0.017333;0.010315;-0.003516;-0.650146;0.486816;-0.287109;0.637324;-0.356536;-0.638445;-0.243080
28824;9.684773;-1.419698;-0.671483;-0.015057;0.015662;-0.001976;-0.643799;0.482910;-0.282715;0.637337;-0.356670;-0.638309;-0.243206
28825;9.692472;-1.442326;-0.711509;-0.008519;0.012157;-0.004254;-0.649170;0.487549;-0.279785;0.637358;-0.356718;-0.638248;-0.243241
28826;9.649831;-1.420255;-0.672618;-0.013452;0.016346;-0.005694;-0.650879;0.477051;-0.292236;0.637336;-0.356839;-0.638159;-0.243354
28827;9.731565;-1.437192;-0.681641;-0.016630;0.015406;-0.006651;-0.646729;0.484863;-0.292236;0.637379;-0.356802;-0.638088;-0.243480
28828;9.722122;-1.314950;-0.620149;-0.028578;0.021951;-0.004446;-0.639160;0.482910;-0.286133;0.637427;-0.356944;-0.637876;-0.243704
28829;9.711004;-1.329083;-0.656744;-0.058010;0.026470;-0.004396;-0.646240;0.483643;-0.283203;0.637413;-0.357222;-0.637605;-0.244044
28830;9.637634;-1.393977;-0.662328;-0.062314;0.011947;-0.004183;-0.655029;0.484131;-0.287842;0.637263;-0.357556;-0.637438;-0.244382
28831;9.650666;-1.513250;-0.700366;-0.059720;0.015741;0.002532;-0.649414;0.485107;-0.282959;0.637146;-0.357886;-0.637238;-0.244726
28832;9.666953;-1.551827;-0.710658;-0.022402;0.008895;-0.005743;-0.644775;0.484619;-0.281494;0.637083;-0.358012;-0.637175;-0.244868
28833;9.708773;-1.436302;-0.667941;0.005558;0.006403;-0.008602;-0.654785;0.488281;-0.286377;0.637097;-0.357982;-0.637185;-0.244850
28834;9.706348;-1.324369;-0.691077;-0.004621;0.016048;-0.019375;-0.650879;0.484375;-0.282959;0.637090;-0.357955;-0.637137;-0.245032
28835;9.632915;-1.405955;-0.727414;-0.016595;0.009600;-0.021282;-0.646240;0.483398;-0.288330;0.637013;-0.357955;-0.637138;-0.245230
28836;9.706437;-1.545775;-0.752250;-0.021500;0.008606;-0.013069;-0.649902;0.488525;-0.291260;0.636985;-0.358007;-0.637072;-0.245399
28837;9.729058;-1.470523;-0.725360;-0.000193;0.014381;-0.014905;-0.655273;0.492676;-0.278809;0.637040;-0.357980;-0.636984;-0.245523
28838;9.735613;-1.466192;-0.681534;-0.018054;0.023567;-0.017067;-0.655762;0.487793;-0.281982;0.636986;-0.358100;-0.636867;-0.245792
28839;9.657196;-1.512048;-0.697200;-0.020010;0.011455;-0.022639;-0.652832;0.488281;-0.281250;0.636877;-0.358150;-0.636848;-0.246049
28840;9.606452;-1.564227;-0.655564;-0.006814;0.001088;-0.007290;-0.645996;0.480225;-0.283691;0.636792;-0.358246;-0.636854;-0.246116
28841;9.615285;-1.450762;-0.599130;0.016703;-0.011313;-0.000079;-0.655029;0.484375;-0.284180;0.636783;-0.358170;-0.636980;-0.245924
28842;9.754906;-1.276455;-0.512372;0.008629;-0.009133;0.000442;-0.653809;0.486084;-0.288330;0.636722;-0.358184;-0.637069;-0.245831
28843;9.756478;-1.349933;-0.614730;-0.026414;0.007601;-0.004864;-0.658203;0.478516;-0.282227;0.636659;-0.358336;-0.636975;-0.246016
28844;9.654313;-1.465302;-0.772275;-0.020236;0.012714;-0.011709;-0.643799;0.482666;-0.287354;0.636593;-0.358313;-0.636989;-0.246183
28845;9.629628;-1.506137;-0.828560;0.006000;0.004984;-0.014548;-0.635498;0.487793;-0.278320;0.636636;-0.358211;-0.637002;-0.246188
28846;9.614032;-1.446885;-0.785636;0.022916;0.003122;-0.004466;-0.652344;0.494141;-0.281006;0.636709;-0.358186;-0.637001;-0.246036
28847;9.691480;-1.372035;-0.683753;0.014187;0.000651;-0.009220;-0.640625;0.479980;-0.282471;0.636672;-0.358242;-0.637008;-0.246034
28848;9.694866;-1.400177;-0.651203;-0.003644;0.002789;-0.011983;-0.652344;0.484619;-0.281738;0.636667;-0.358192;-0.637038;-0.246039
28849;9.719845;-1.422795;-0.642646;-0.012987;0.007584;-0.014968;-0.656494;0.483398;-0.287354;0.636597;-0.358220;-0.637037;-0.246186
28850;9.641241;-1.469798;-0.659892;-0.000528;0.004810;-0.013942;-0.646973;0.485352;-0.286865;0.636570;-0.358154;-0.637071;-0.246263
28851;9.699163;-1.374582;-0.597703;0.024582;0.002754;-0.005251;-0.647217;0.486084;-0.297119;0.636654;-0.358045;-0.637097;-0.246136
28852;9.723530;-1.257504;-0.604570;0.008373;0.008179;-0.007140;-0.651855;0.487549;-0.286865;0.636770;-0.357975;-0.637022;-0.246132
28853;9.704026;-1.383960;-0.699539;-0.022667;0.015780;-0.012881;-0.642578;0.491943;-0.281494;0.636742;-0.358075;-0.636905;-0.246362
28854;9.646868;-1.524764;-0.777545;-0.022148;0.019227;-0.012391;-0.649414;0.484619;-0.288574;0.636732;-0.358250;-0.636730;-0.246586
28855;9.568282;-1.572493;-0.794524;0.007893;-0.002298;-0.008223;-0.647949;0.492920;-0.285156;0.636733;-0.358206;-0.636766;-0.246555
28856;9.686531;-1.462704;-0.659656;0.025300;-0.015217;-0.009272;-0.643799;0.488281;-0.287354;0.636686;-0.358210;-0.636858;-0.246430
28857;9.694748;-1.367539;-0.634798;0.029400;-0.012715;-0.005380;-0.645020;0.486328;-0.286865;0.636709;-0.358148;-0.636944;-0.246239
28858;9.776176;-1.304620;-0.639455;0.002756;-0.003127;-0.004989;-0.649902;0.479248;-0.284424;0.636700;-0.358186;-0.636943;-0.246210
28859;9.705103;-1.376283;-0.699742;-0.022331;0.004107;-0.004506;-0.649902;0.480225;-0.285645;0.636639;-0.358252;-0.636930;-0.246306
28860;9.705400;-1.504416;-0.725332;-0.030866;0.011843;-0.004762;-0.654541;0.484863;-0.284424;0.636598;-0.358356;-0.636845;-0.246481
28861;9.618652;-1.548682;-0.730844;-0.010788;0.009112;-0.003953;-0.655273;0.484863;-0.281006;0.636573;-0.358421;-0.636798;-0.246572
28862;9.654471;-1.527343;-0.693900;0.020545;0.001790;-0.001622;-0.649170;0.485596;-0.288330;0.636586;-0.358356;-0.636864;-0.246462
28863;9.711736;-1.452085;-0.662683;0.038477;-0.004314;-0.003248;-0.657227;0.483643;-0.281250;0.636678;-0.358191;-0.636952;-0.246236
28864;9.738978;-1.316239;-0.619700;0.038351;-0.006279;-0.002374;-0.649658;0.491455;-0.281006;0.636695;-0.358031;-0.637112;-0.246013
28865;9.683849;-1.316880;-0.695610;0.012209;-0.001814;-0.009604;-0.658691;0.483398;-0.284912;0.636655;-0.358067;-0.637139;-0.245995
28866;9.665427;-1.369016;-0.669934;0.004887;-0.002348;-0.007141;-0.650391;0.482666;-0.289307;0.636598;-0.358036;-0.637214;-0.245991
28867;9.711459;-1.357331;-0.698108;-0.011716;0.000822;-0.004742;-0.652100;0.479492;-0.291016;0.636568;-0.358085;-0.637195;-0.246047
28868;9.660214;-1.331680;-0.650991;-0.015701;-0.010557;-0.000639;-0.645508;0.486084;-0.287842;0.636483;-0.358154;-0.637236;-0.246059
28869;9.791040;-1.398426;-0.647762;-0.037563;-0.002700;-0.001925;-0.645996;0.482910;-0.285156;0.636370;-0.358408;-0.637142;-0.246225
28870;9.698056;-1.512207;-0.745122;-0.022742;0.009353;-0.008012;-0.646240;0.487793;-0.279541;0.636344;-0.358493;-0.637066;-0.246366
28871;9.665584;-1.531160;-0.759589;0.005591;0.005356;-0.005670;-0.645996;0.491943;-0.287109;0.636347;-0.358526;-0.637049;-0.246356
28872;9.641692;-1.467917;-0.705052;0.024969;0.005023;-0.009539;-0.649902;0.488037;-0.291016;0.636433;-0.358456;-0.637031;-0.246278
28873;9.707417;-1.377187;-0.653776;0.029006;0.005242;-0.007504;-0.657227;0.484131;-0.293457;0.636548;-0.358317;-0.637038;-0.246167
28874;9.718381;-1.349167;-0.655004;0.004031;0.007707;-0.005764;-0.645020;0.483643;-0.281982;0.636594;-0.358262;-0.637011;-0.246197
28875;9.661661;-1.355588;-0.635187;0.000626;0.002818;-0.004976;-0.651123;0.475586;-0.280762;0.636592;-0.358275;-0.637014;-0.246178
28876;9.664792;-1.353489;-0.614329;-0.001693;0.001909;-0.010532;-0.653076;0.479980;-0.286133;0.636550;-0.358181;-0.637106;-0.246184
28877;9.683535;-1.348248;-0.658653;0.015738;0.000930;-0.004537;-0.648682;0.487305;-0.291504;0.636581;-0.358063;-0.637177;-0.246090
28878;9.756525;-1.366634;-0.731451;0.009648;-0.009254;-0.017992;-0.651367;0.484375;-0.284424;0.636548;-0.357989;-0.637256;-0.246081
28879;9.696907;-1.458098;-0.811671;0.015108;0.023633;-0.026773;-0.649414;0.487793;-0.273682;0.636643;-0.357769;-0.637242;-0.246190
28880;9.638061;-1.511734;-0.828441;0.042604;0.013366;-0.026083;-0.650146;0.490723;-0.289307;0.636708;-0.357515;-0.637341;-0.246134
28881;9.683041;-1.435133;-0.710001;0.040869;0.001380;-0.023935;-0.648438;0.478760;-0.291504;0.636785;-0.357281;-0.637429;-0.246045
28882;9.702992;-1.402328;-0.650270;0.037470;-0.000905;-0.018559;-0.651855;0.482666;-0.283447;0.636885;-0.356963;-0.637570;-0.245885
28883;9.733676;-1.391809;-0.612650;0.031807;-0.004426;-0.021469;-0.647217;0.483154;-0.283691;0.636879;-0.356745;-0.637733;-0.245793
28884;9.677177;-1.464785;-0.642305;0.022998;0.005626;-0.013741;-0.650879;0.481201;-0.291748;0.636934;-0.356604;-0.637784;-0.245723
28885;9.658304;-1.473976;-0.669253;0.033709;0.000993;-0.013771;-0.645996;0.490234;-0.290283;0.637028;-0.356363;-0.637879;-0.245582
28886;9.691270;-1.451955;-0.652957;0.040617;-0.000682;-0.011938;-0.650879;0.474609;-0.290527;0.637134;-0.356206;-0.637928;-0.245409
28887;9.696314;-1.357171;-0.646710;0.041995;-0.001313;-0.009308;-0.658447;0.491943;-0.285156;0.637248;-0.355891;-0.638082;-0.245171
28888;9.688131;-1.389390;-0.695592;0.028570;0.000163;-0.010538;-0.645508;0.491699;-0.290527;0.637248;-0.355843;-0.638132;-0.245109
28889;9.690968;-1.424666;-0.735935;0.029428;-0.006526;-0.012968;-0.655762;0.480469;-0.286621;0.637283;-0.355776;-0.638179;-0.244991
28890;9.712606;-1.349872;-0.711397;0.029599;-0.005623;-0.010922;-0.656006;0.487793;-0.291992;0.637286;-0.355611;-0.638321;-0.244856
28891;9.691014;-1.322488;-0.698856;0.018701;0.001463;-0.014028;-0.653320;0.486084;-0.292480;0.637303;-0.355536;-0.638349;-0.244847
28892;9.666833;-1.258004;-0.645693;0.004157;0.000027;-0.011826;-0.652832;0.478271;-0.285156;0.637287;-0.355537;-0.638349;-0.244887
28893;9.683776;-1.276264;-0.626366;-0.016607;-0.001364;-0.012433;-0.650146;0.476562;-0.283936;0.637178;-0.355586;-0.638388;-0.244999
28894;9.701565;-1.442084;-0.663022;-0.027628;0.001139;-0.019235;-0.649902;0.489990;-0.285645;0.637042;-0.355638;-0.638417;-0.245199
28895;9.688806;-1.603750;-0.778555;-0.002615;0.006714;-0.018360;-0.646729;0.480957;-0.293701;0.637006;-0.355686;-0.638376;-0.245330
28896;9.677301;-1.468648;-0.761386;0.029573;0.001123;-0.013087;-0.649902;0.488770;-0.279053;0.637107;-0.355487;-0.638435;-0.245202
28897;9.668549;-1.333247;-0.723691;0.024676;0.004218;-0.011616;-0.643066;0.469727;-0.291016;0.637121;-0.355440;-0.638472;-0.245136
28898;9.759085;-1.277150;-0.623220;0.001843;0.001708;-0.012800;-0.651855;0.481934;-0.288818;0.637158;-0.355280;-0.638540;-0.245095
28899;9.659328;-1.348481;-0.646851;-0.034951;0.007276;-0.018941;-0.655029;0.481934;-0.286133;0.637045;-0.355407;-0.638473;-0.245379
28900;9.609460;-1.555888;-0.733691;-0.004802;0.003640;-0.018055;-0.659668;0.483154;-0.290039;0.636981;-0.355393;-0.638500;-0.245497
28901;9.617414;-1.421498;-0.646483;0.023665;-0.000058;-0.007985;-0.655518;0.483887;-0.284912;0.637004;-0.355290;-0.638564;-0.245418
28902;9.716825;-1.266551;-0.616009;0.006845;-0.006559;-0.004592;-0.646729;0.479492;-0.284424;0.636938;-0.355333;-0.638621;-0.245381
28903;9.785189;-1.292028;-0.614951;-0.035328;-0.002118;-0.004075;-0.649902;0.489258;-0.286133;0.636806;-0.355551;-0.638573;-0.245533
28904;9.742612;-1.512746;-0.786667;-0.041100;0.011462;-0.009658;-0.650879;0.480225;-0.277832;0.636704;-0.355833;-0.638401;-0.245835
28905;9.661118;-1.513115;-0.805687;-0.001934;0.003910;-0.005275;-0.651367;0.487305;-0.282471;0.636659;-0.355873;-0.638420;-0.245846
28906;9.652555;-1.389989;-0.726065;0.007268;0.001327;-0.008129;-0.648438;0.485107;-0.277588;0.636631;-0.355915;-0.638423;-0.245848
28907;9.703728;-1.257993;-0.645440;0.005035;-0.004038;-0.009672;-0.656982;0.482422;-0.283447;0.636556;-0.355964;-0.638476;-0.245836
28908;9.698593;-1.270152;-0.644790;-0.026606;-0.002500;-0.006647;-0.651855;0.478027;-0.273926;0.636405;-0.356143;-0.638466;-0.245993
28909;9.753766;-1.285214;-0.600679;-0.036458;-0.004576;-0.009054;-0.658691;0.486816;-0.285889;0.636191;-0.356344;-0.638498;-0.246171
28910;9.722100;-1.440134;-0.715232;-0.062548;0.008002;-0.010951;-0.651123;0.484375;-0.282471;0.635984;-0.356705;-0.638338;-0.246599
28911;9.661471;-1.625806;-0.782417;-0.010700;-0.006865;-0.015386;-0.656738;0.488281;-0.291016;0.635858;-0.356780;-0.638383;-0.246698
28912;9.718728;-1.578508;-0.740998;0.030721;-0.005696;-0.010535;-0.646484;0.483154;-0.292969;0.635887;-0.356677;-0.638452;-0.246592
28913;9.698436;-1.440623;-0.712843;0.048684;-0.003445;-0.006789;-0.653320;0.487549;-0.290039;0.636038;-0.356443;-0.638535;-0.246328
28914;9.733225;-1.319032;-0.639431;0.025673;-0.003816;-0.013844;-0.652588;0.482910;-0.290039;0.636059;-0.356348;-0.638593;-0.246261
28915;9.690889;-1.451524;-0.730983;0.015645;0.005577;-0.019690;-0.655273;0.474365;-0.277832;0.636098;-0.356209;-0.638623;-0.246283
28916;9.633492;-1.395426;-0.734842;0.030520;-0.000166;-0.017481;-0.659424;0.477295;-0.283691;0.636109;-0.355942;-0.638815;-0.246144
28917;9.660682;-1.317805;-0.668907;0.030552;-0.006884;-0.015318;-0.647217;0.473389;-0.290771;0.636094;-0.355726;-0.639002;-0.246009
28918;9.753721;-1.335779;-0.670793;0.017066;-0.001777;-0.014896;-0.647705;0.481689;-0.289551;0.636142;-0.355523;-0.639103;-0.245913
28919;9.781685;-1.414259;-0.733187;0.012875;0.002289;-0.009816;-0.650879;0.476318;-0.294434;0.636190;-0.355455;-0.639112;-0.245866
28920;9.784932;-1.430142;-0.742123;0.019655;0.005829;-0.017663;-0.655273;0.474365;-0.283447;0.636280;-0.355231;-0.639164;-0.245819
28921;9.725278;-1.423606;-0.784421;0.056301;0.003372;-0.034190;-0.642822;0.483887;-0.279541;0.636368;-0.354747;-0.639405;-0.245664
28922;9.646871;-1.331053;-0.703187;0.084943;-0.009958;-0.054270;-0.652100;0.485352;-0.288330;0.636435;-0.354152;-0.639758;-0.245432
28923;9.644442;-1.216521;-0.616212;0.123289;-0.044797;-0.072055;-0.656250;0.477295;-0.284424;0.636400;-0.353321;-0.640410;-0.245018
28924;9.881416;-1.158503;-0.395191;0.122362;-0.044103;-0.098167;-0.648682;0.473633;-0.285889;0.636290;-0.352298;-0.641192;-0.244731
28925;10.120725;-1.263192;-0.539559;0.144617;-0.013320;-0.119900;-0.650879;0.471924;-0.281982;0.636400;-0.350956;-0.641908;-0.244499
28926;10.161080;-1.264915;-0.616139;0.206441;-0.020870;-0.152951;-0.659668;0.479004;-0.293945;0.636552;-0.349142;-0.642898;-0.244096
28927;10.126084;-1.202422;-0.580920;0.270136;-0.031972;-0.209219;-0.655762;0.469238;-0.293945;0.636726;-0.346769;-0.644168;-0.243676
28928;9.955170;-1.204079;-0.524363;0.357738;-0.077028;-0.258034;-0.662598;0.460938;-0.287598;0.636823;-0.343702;-0.646017;-0.242872
28929;9.847386;-1.201753;-0.315112;0.464531;-0.139862;-0.295124;-0.664795;0.460205;-0.293701;0.636756;-0.339972;-0.648567;-0.241498
28930;9.726092;-1.118551;-0.190470;0.583422;-0.196047;-0.336928;-0.672363;0.456055;-0.292969;0.636634;-0.335527;-0.651713;-0.239560
28931;9.555887;-0.968729;-0.112190;0.670665;-0.231959;-0.388230;-0.661865;0.443115;-0.296875;0.636406;-0.330431;-0.655345;-0.237329
28932;9.449989;-1.096723;-0.311369;0.751184;-0.256576;-0.461077;-0.669922;0.429688;-0.301270;0.636148;-0.324484;-0.659425;-0.234911
28933;9.503416;-1.589757;-0.600216;0.876613;-0.266050;-0.506704;-0.686523;0.430420;-0.300293;0.636050;-0.317562;-0.663908;-0.231992
28934;9.503005;-1.715812;-0.691050;1.044958;-0.249621;-0.542115;-0.679199;0.414795;-0.305176;0.636295;-0.309619;-0.668647;-0.228421
28935;9.355523;-1.737960;-0.656220;0.986069;-0.208368;-0.552929;-0.688232;0.403564;-0.312988;0.636584;-0.301776;-0.673011;-0.225276
28936;9.111376;-2.075303;-0.872316;0.864390;-0.177702;-0.519795;-0.692871;0.386963;-0.313232;0.636752;-0.294673;-0.676843;-0.222706
28937;8.724475;-2.381029;-1.366431;0.866068;-0.258278;-0.435489;-0.692871;0.388428;-0.320557;0.636575;-0.288098;-0.680901;-0.219423
28938;9.083806;-2.114036;-1.128452;0.874740;-0.288945;-0.329912;-0.702881;0.376221;-0.313721;0.636414;-0.282237;-0.684747;-0.215500
28939;8.839155;-2.411781;-1.400290;0.851597;-0.275039;-0.161525;-0.705078;0.355469;-0.319580;0.636488;-0.277380;-0.688121;-0.210790
28940;9.089736;-2.437900;-1.430368;0.853070;-0.306316;0.036576;-0.699951;0.362305;-0.315674;0.636735;-0.273507;-0.691227;-0.204861
28941;9.560907;-1.557430;-0.786935;0.772021;-0.334127;0.161763;-0.699707;0.351807;-0.322021;0.636793;-0.270972;-0.693965;-0.198699
28942;10.056393;-0.605679;-0.338811;0.503738;-0.304604;0.207260;-0.703857;0.358887;-0.315186;0.636508;-0.269949;-0.695987;-0.193875
28943;10.084887;-0.158450;-0.054778;0.276886;-0.273471;0.239841;-0.701416;0.360596;-0.319580;0.635878;-0.270372;-0.697387;-0.190288
28944;9.521216;0.080973;-0.083853;0.238871;-0.271748;0.283006;-0.706055;0.357910;-0.320068;0.635269;-0.271233;-0.698571;-0.186720
28945;8.868810;0.381089;0.070038;0.239652;-0.263086;0.269049;-0.701660;0.361328;-0.321045;0.634685;-0.271918;-0.699761;-0.183221
28946;8.404805;0.456887;-0.042646;0.157368;-0.259987;0.256921;-0.703613;0.358398;-0.318848;0.633930;-0.272978;-0.700791;-0.180298
28947;8.532739;0.196864;-0.399757;0.059929;-0.277406;0.333001;-0.706299;0.361572;-0.308105;0.632958;-0.274954;-0.701617;-0.177478
28948;9.705843;0.271323;-0.461520;0.050915;-0.219826;0.424885;-0.697266;0.371094;-0.304443;0.632372;-0.277447;-0.701952;-0.174335
28949;10.626740;1.393635;-0.428537;-0.323336;0.041203;0.406649;-0.703369;0.367920;-0.307861;0.632416;-0.281506;-0.700348;-0.174117
28950;11.947451;1.214743;-0.905712;-0.823772;0.471091;0.566015;-0.701660;0.389160;-0.302734;0.634011;-0.288334;-0.695404;-0.176938
28951;12.702389;-0.062357;-1.262800;-1.174570;1.095772;1.399658;-0.684082;0.416016;-0.308594;0.639426;-0.301028;-0.684476;-0.178910
28952;12.544900;-1.199672;-2.071713;-1.510853;1.495973;1.759707;-0.659424;0.439941;-0.321289;0.646555;-0.316898;-0.669681;-0.181847
28953;11.287105;0.738736;-3.062638;-2.230311;1.483294;1.387400;-0.642822;0.468506;-0.313477;0.650837;-0.334321;-0.654439;-0.190658
28954;11.308664;0.632530;-3.463384;-2.691781;1.384219;0.944911;-0.624756;0.495361;-0.310303;0.652097;-0.351832;-0.639821;-0.203993
28955;10.708770;-1.372371;-4.255908;-2.283999;1.341982;0.858916;-0.622070;0.514160;-0.302979;0.653809;-0.366534;-0.625933;-0.215395
28956;8.994759;-1.732708;-4.345615;-1.320169;0.939322;0.733294;-0.604980;0.531738;-0.313721;0.655837;-0.375869;-0.616207;-0.221110
28957;8.006634;-1.789004;-4.026960;-0.243736;0.112497;0.491019;-0.597656;0.535156;-0.304443;0.656579;-0.379499;-0.613583;-0.220003
28958;8.120770;-1.147734;-3.107020;0.675535;-0.677075;0.246058;-0.602295;0.540771;-0.302979;0.655657;-0.378326;-0.617741;-0.213026
28959;8.924805;0.079056;-1.721502;1.112196;-1.106530;0.156900;-0.607910;0.531006;-0.302002;0.653637;-0.375094;-0.625203;-0.202940
28960;9.261379;0.998487;-0.714959;1.007516;-1.187702;0.195997;-0.618652;0.525635;-0.302979;0.650824;-0.372635;-0.632753;-0.192862
28961;9.549254;1.558455;-0.025949;0.549073;-1.033573;0.267494;-0.615967;0.525146;-0.292969;0.647437;-0.372653;-0.638468;-0.185239
28962;9.718364;1.681003;0.184094;-0.041625;-0.705463;0.315689;-0.620850;0.523682;-0.288818;0.643976;-0.375635;-0.641278;-0.181537
28963;9.873403;1.343566;-0.029879;-0.531692;-0.298084;0.318264;-0.610107;0.541016;-0.284912;0.641156;-0.380528;-0.641180;-0.181677
28964;9.774428;0.890702;-0.437363;-0.726381;0.065069;0.281039;-0.614014;0.537842;-0.274414;0.639628;-0.385825;-0.638796;-0.184269
28965;9.785556;0.626409;-0.835175;-0.665193;0.337835;0.211637;-0.609619;0.544922;-0.268799;0.639566;-0.389913;-0.635351;-0.187755
28966;9.747629;0.413509;-1.194028;-0.427700;0.517270;0.093576;-0.608887;0.548340;-0.272217;0.640997;-0.391873;-0.631657;-0.191227
28967;9.740575;0.528486;-1.309371;-0.141933;0.664957;-0.065474;-0.601074;0.543701;-0.279541;0.643873;-0.391196;-0.628137;-0.194516
28968;9.546025;0.804770;-1.467750;0.050597;0.739780;-0.188791;-0.592773;0.549072;-0.279541;0.647583;-0.388653;-0.624911;-0.197664
28969;9.645451;0.687038;-0.990099;0.114476;0.853565;-0.191439;-0.597168;0.549072;-0.301025;0.652007;-0.385734;-0.621055;-0.200963
28970;9.608187;0.659020;-0.696896;0.065027;0.988773;-0.164786;-0.593994;0.545898;-0.300537;0.657049;-0.382830;-0.616298;-0.204706
28971;9.901438;0.372185;-0.156404;-0.130212;1.142242;-0.044810;-0.587402;0.539307;-0.305664;0.662321;-0.381432;-0.609923;-0.209368
28972;9.708557;0.907914;-0.656275;-0.341583;1.214003;-0.057054;-0.582031;0.538574;-0.324463;0.667171;-0.380963;-0.602790;-0.215395
28973;9.462339;3.566507;-0.019744;-0.609589;1.042416;-0.596133;-0.577393;0.548584;-0.325439;0.669346;-0.379388;-0.597813;-0.225077
28974;11.114339;2.429421;-0.018989;-1.375282;0.980627;-0.609422;-0.572998;0.553223;-0.318115;0.668617;-0.382252;-0.591549;-0.238547
28975;11.129851;0.653346;-0.798934;-1.387447;1.083717;-0.546636;-0.574463;0.552490;-0.319092;0.668297;-0.385292;-0.584282;-0.252080
28976;10.659637;0.727522;-1.030857;-1.141184;1.030444;-0.595462;-0.579834;0.548828;-0.318115;0.668282;-0.386672;-0.577904;-0.264407
28977;10.894630;0.520795;-1.130995;-0.820756;0.878384;-0.583509;-0.573242;0.554199;-0.315186;0.668473;-0.386538;-0.573014;-0.274568
28978;10.967408;1.241505;-0.617966;-0.606700;0.644237;-0.613440;-0.572998;0.547119;-0.317139;0.668070;-0.385705;-0.569839;-0.283194
28979;11.822848;1.789737;-0.052173;-0.703908;0.415142;-0.679389;-0.581299;0.544678;-0.317627;0.666081;-0.385548;-0.567907;-0.291841
28980;13.565050;1.705405;0.203155;-0.947895;0.268469;-0.783133;-0.593506;0.543701;-0.315674;0.662306;-0.386528;-0.566507;-0.301690
28981;15.860429;1.419972;0.431280;-1.174463;0.216016;-0.857509;-0.594727;0.547363;-0.311279;0.657288;-0.388437;-0.565030;-0.312779
28982;17.818406;1.349537;0.581107;-1.394193;0.310208;-0.865329;-0.604004;0.546387;-0.296387;0.651897;-0.391249;-0.562306;-0.325218
28983;18.463836;1.416094;0.466793;-1.671441;0.608312;-0.827404;-0.612305;0.546143;-0.293213;0.646885;-0.394902;-0.556944;-0.339714
28984;16.001316;1.541446;-0.159568;-1.873087;0.976103;-0.863251;-0.603027;0.552490;-0.285156;0.642647;-0.398229;-0.549013;-0.356376
28985;12.363648;1.597717;-0.732779;-1.820700;1.076458;-1.063524;-0.611328;0.547607;-0.277344;0.638194;-0.400049;-0.541001;-0.374148
28986;8.762471;1.889927;-0.971085;-1.511685;0.842461;-1.380782;-0.618652;0.540771;-0.268066;0.632457;-0.399358;-0.536096;-0.391296
28987;6.747510;1.941379;-0.991094;-1.066245;0.345128;-1.863500;-0.621338;0.532227;-0.259766;0.624139;-0.395715;-0.536658;-0.407258
28988;6.736631;1.622820;-0.704265;-0.635256;-0.151057;-2.421647;-0.645020;0.506348;-0.250244;0.612842;-0.389052;-0.542734;-0.422497
28989;8.003947;1.107729;-0.370093;-0.242939;-0.433156;-2.948021;-0.669678;0.473145;-0.246094;0.599320;-0.378797;-0.553100;-0.437502
28990;9.717206;0.692016;0.153782;0.027378;-0.501119;-3.330454;-0.696777;0.436523;-0.254639;0.584535;-0.365394;-0.565645;-0.452607
28991;11.468871;0.211189;0.672154;0.109905;-0.392180;-3.561743;-0.716309;0.394043;-0.227295;0.569232;-0.349730;-0.578193;-0.468355
28992;12.841060;-0.449254;1.047501;0.031274;-0.119799;-3.646998;-0.748291;0.354004;-0.243164;0.553983;-0.332860;-0.588886;-0.485305
28993;13.316431;-1.159869;0.959168;-0.109918;0.319187;-3.563997;-0.760742;0.311768;-0.237305;0.540354;-0.314956;-0.596189;-0.503367
28994;12.997859;-1.615200;0.636551;-0.215150;0.761617;-3.306056;-0.767578;0.277100;-0.243164;0.529207;-0.296763;-0.599922;-0.521503
28995;12.165268;-1.679919;0.237894;-0.273238;1.092338;-2.877416;-0.767578;0.232178;-0.267578;0.521021;-0.279342;-0.600472;-0.538459
28996;10.988048;-1.565522;-0.214960;-0.296726;1.241801;-2.375598;-0.767578;0.210205;-0.275635;0.515675;-0.263296;-0.598932;-0.553204
28997;9.647066;-1.561891;-0.553132;-0.267284;1.199525;-1.914487;-0.773438;0.192871;-0.283447;0.512068;-0.249475;-0.596518;-0.565433
28998;8.381908;-1.523809;-0.621709;-0.161234;0.987091;-1.615268;-0.770508;0.165527;-0.298096;0.508898;-0.237540;-0.594772;-0.575190
28999;7.329169;-1.650337;-0.561413;-0.093284;0.671978;-1.466170;-0.763916;0.150146;-0.309814;0.504932;-0.227467;-0.594285;-0.583205
29000;6.638222;-2.005352;-0.430258;-0.031175;0.375369;-1.429681;-0.766846;0.130859;-0.308105;0.499712;-0.218721;-0.595181;-0.590092
29001;6.222597;-2.410650;-0.097811;-0.017155;0.110989;-1.400654;-0.761963;0.114502;-0.312500;0.493281;-0.211329;-0.597117;-0.596209
29002;6.211131;-2.755349;0.343127;-0.081352;-0.105023;-1.259535;-0.774414;0.099609;-0.309814;0.486307;-0.205951;-0.599301;-0.601604
29003;6.396529;-3.029380;0.577839;-0.152927;-0.279423;-0.919410;-0.773438;0.091309;-0.304688;0.480007;-0.203418;-0.601201;-0.605616
29004;6.810993;-3.232981;0.581125;-0.132323;-0.377327;-0.352116;-0.779785;0.082764;-0.294678;0.476100;-0.204132;-0.602611;-0.607058
29005;7.266011;-3.153888;0.442438;0.015698;-0.373633;0.410089;-0.776367;0.087402;-0.300293;0.476315;-0.208063;-0.603449;-0.604717
29006;7.469179;-2.663550;0.463461;0.230846;-0.293908;1.194606;-0.765381;0.105957;-0.295898;0.481232;-0.214672;-0.603656;-0.598274
29007;7.365744;-1.800746;0.742688;0.351169;-0.214649;1.804156;-0.770752;0.127930;-0.297607;0.489723;-0.223433;-0.602954;-0.588809
29008;7.201582;-0.900318;0.974427;0.296463;-0.200794;2.202305;-0.771973;0.149414;-0.288574;0.499996;-0.234285;-0.601011;-0.577841
29009;7.334200;-0.212661;1.276953;0.079974;-0.225386;2.451547;-0.763184;0.179199;-0.285645;0.510733;-0.247317;-0.597414;-0.566642
29010;7.729759;0.140878;1.484630;-0.221261;-0.257258;2.639045;-0.764160;0.212891;-0.287109;0.521343;-0.262602;-0.591870;-0.555816
29011;8.296905;0.384750;1.639583;-0.504189;-0.334988;2.818078;-0.749512;0.251709;-0.280029;0.531500;-0.280220;-0.584644;-0.545138
29012;9.305967;0.673140;1.866321;-0.756371;-0.446676;3.021669;-0.744141;0.292236;-0.264160;0.541112;-0.300278;-0.575921;-0.534177
29013;10.702015;0.821235;2.121097;-1.003548;-0.578377;3.255660;-0.735107;0.330566;-0.266113;0.550101;-0.322932;-0.565672;-0.522608
29014;12.470252;0.741071;2.370657;-1.184634;-0.700201;3.477200;-0.713135;0.375000;-0.247314;0.558496;-0.347695;-0.554081;-0.510083
29015;14.186274;0.802583;2.585631;-1.303008;-0.746589;3.672438;-0.697021;0.421875;-0.224365;0.566583;-0.373750;-0.541066;-0.496530
29016;15.341135;0.901226;2.482657;-1.418959;-0.638282;3.801176;-0.680176;0.466797;-0.210938;0.574678;-0.400064;-0.526049;-0.482666
29017;15.984654;1.137125;2.218064;-1.488388;-0.429436;3.834784;-0.657715;0.520020;-0.187988;0.582908;-0.425537;-0.509020;-0.469080
29018;16.186577;1.489226;2.116230;-1.552741;-0.319340;3.803250;-0.621582;0.560791;-0.179199;0.590549;-0.450265;-0.490714;-0.455755
29019;17.146388;1.700300;2.368394;-1.612601;-0.504402;3.693621;-0.592773;0.598145;-0.166016;0.596115;-0.475002;-0.472927;-0.441996
29020;18.252225;1.826451;3.128203;-1.698905;-0.902606;3.530045;-0.549805;0.647461;-0.137695;0.598492;-0.500427;-0.456915;-0.427328
29021;18.306957;2.078860;3.695684;-1.794849;-1.285889;3.256487;-0.527832;0.672852;-0.099365;0.597391;-0.526124;-0.443097;-0.412290
29022;16.098768;2.240811;3.356116;-1.774429;-1.350316;2.822587;-0.499756;0.694824;-0.076660;0.594015;-0.549819;-0.431130;-0.398713
29023;12.627065;2.268407;2.363722;-1.382491;-1.108371;2.232609;-0.473633;0.721680;-0.052246;0.590929;-0.568212;-0.421663;-0.387476
29024;9.579611;2.174793;1.196849;-0.625095;-0.741415;1.531455;-0.458496;0.741699;-0.048340;0.590231;-0.579008;-0.415982;-0.378597
29025;7.609466;2.131644;0.651855;0.318673;-0.542434;0.673244;-0.447266;0.734619;-0.041016;0.592012;-0.581454;-0.416403;-0.371539
29026;7.380741;2.169896;0.872284;1.088860;-0.546789;-0.278887;-0.456055;0.730225;-0.044678;0.594478;-0.576786;-0.423781;-0.366501
29027;8.324208;2.360335;1.608184;1.484064;-0.565970;-1.080366;-0.467773;0.722168;-0.060791;0.596193;-0.567302;-0.436209;-0.363929
29028;9.453435;2.348028;2.357167;1.531445;-0.409733;-1.603949;-0.491455;0.703125;-0.073242;0.596944;-0.555030;-0.450358;-0.364387
29029;10.675145;2.118241;2.630009;1.340623;-0.141954;-1.836351;-0.505127;0.684570;-0.086426;0.596881;-0.541829;-0.463492;-0.367871
29030;11.854179;2.109140;2.853306;0.921948;0.189293;-1.765538;-0.525146;0.680176;-0.108154;0.596241;-0.529807;-0.473226;-0.373976
29031;12.657773;2.228567;2.787838;0.335071;0.567551;-1.459195;-0.537109;0.655762;-0.111572;0.595353;-0.520593;-0.477822;-0.382393
29032;12.708654;2.211122;2.379573;-0.338691;0.963832;-1.059546;-0.546387;0.646973;-0.102539;0.594272;-0.514974;-0.476464;-0.393224
29033;11.761868;2.032508;1.638869;-0.883148;1.324045;-0.741339;-0.550049;0.640137;-0.120605;0.593176;-0.512080;-0.470029;-0.406189
29034;10.646914;1.752400;0.833178;-1.192024;1.529062;-0.624365;-0.548828;0.644043;-0.111572;0.591858;-0.510296;-0.460976;-0.420480
29035;9.628336;1.554216;0.294198;-1.277843;1.568759;-0.673815;-0.541504;0.639648;-0.115723;0.589950;-0.508493;-0.451461;-0.435405
29036;8.748105;1.293602;-0.061881;-1.139820;1.447807;-0.872314;-0.544922;0.631592;-0.114014;0.587293;-0.505546;-0.443768;-0.450090
29037;8.216159;1.205530;-0.153376;-0.896472;1.213231;-1.187512;-0.577393;0.621826;-0.124268;0.583441;-0.500989;-0.439336;-0.464317
29038;7.925352;1.203702;0.000525;-0.658800;0.912586;-1.557508;-0.579102;0.609863;-0.119385;0.577895;-0.494904;-0.438730;-0.478145
29039;8.087531;1.053575;0.164476;-0.469674;0.622669;-1.910069;-0.586670;0.589111;-0.118652;0.570496;-0.487677;-0.441595;-0.491630
29040;8.441884;0.790581;0.345736;-0.308473;0.406410;-2.172849;-0.614258;0.585205;-0.122314;0.561699;-0.479459;-0.447078;-0.504712
29041;8.749355;0.474955;0.426039;-0.142599;0.322764;-2.332543;-0.627930;0.558105;-0.116211;0.552390;-0.470061;-0.454134;-0.517369
29042;8.903636;0.268714;0.514323;0.022020;0.327516;-2.400878;-0.645020;0.527100;-0.129395;0.543204;-0.459472;-0.461949;-0.529544
29043;9.065690;0.141769;0.682329;0.157744;0.363879;-2.390506;-0.658936;0.498291;-0.118164;0.534548;-0.447913;-0.470006;-0.541042
29044;9.307110;0.062202;0.922634;0.240479;0.375137;-2.311489;-0.679688;0.474365;-0.136475;0.526323;-0.436132;-0.477868;-0.551738
29045;9.673504;0.031694;1.249005;0.266049;0.356025;-2.180414;-0.684570;0.458496;-0.133057;0.518578;-0.424635;-0.485314;-0.561455
29046;9.973359;-0.101524;1.325998;0.284268;0.396513;-2.019139;-0.701904;0.427979;-0.128174;0.511638;-0.413425;-0.491937;-0.570355
29047;10.364186;-0.375053;1.199629;0.359399;0.493513;-1.857886;-0.693359;0.407715;-0.145020;0.505941;-0.401941;-0.497810;-0.578491
29048;10.824521;-0.668486;0.999136;0.534833;0.643251;-1.686129;-0.717041;0.382080;-0.163086;0.502171;-0.389574;-0.503204;-0.585528
29049;11.331716;-0.756424;0.815925;0.771794;0.784823;-1.533591;-0.719482;0.364014;-0.179443;0.500380;-0.376067;-0.508544;-0.591250
29050;11.881882;-0.793704;0.650043;0.965735;0.894335;-1.406247;-0.715088;0.347412;-0.192139;0.500164;-0.361659;-0.513861;-0.595807
29051;11.965841;-0.574076;0.815706;1.108301;0.902958;-1.295931;-0.722900;0.321777;-0.203857;0.500835;-0.346995;-0.519390;-0.599160
29052;11.890593;-0.186455;1.049233;1.080985;0.782675;-1.163848;-0.729248;0.309082;-0.223633;0.501450;-0.333536;-0.524785;-0.601584
29053;11.562361;0.338500;1.355445;0.902498;0.623360;-1.010938;-0.722412;0.295898;-0.221924;0.501548;-0.322229;-0.529433;-0.603588
29054;12.070135;0.341771;1.576362;0.573355;0.362761;-0.868791;-0.731201;0.289062;-0.225830;0.500270;-0.314199;-0.533074;-0.605674
29055;13.342623;-0.251555;1.745796;0.277743;0.171824;-0.734230;-0.730225;0.276367;-0.234131;0.498020;-0.308944;-0.535635;-0.607968
29056;13.558162;-0.809581;2.146090;0.065958;0.046856;-0.554052;-0.731201;0.267090;-0.227295;0.495568;-0.305995;-0.537164;-0.610111
29057;12.409362;-0.924482;2.264433;-0.077762;-0.027428;-0.326957;-0.735352;0.260010;-0.231445;0.493567;-0.305032;-0.537683;-0.611755
29058;10.379021;-0.560095;2.256654;-0.185009;-0.131837;-0.071280;-0.731689;0.272217;-0.225586;0.492130;-0.306187;-0.537434;-0.612554
29059;9.286734;-0.453125;2.035423;-0.244462;-0.246075;0.114037;-0.736084;0.272461;-0.228516;0.490975;-0.308998;-0.536873;-0.612561
29060;8.758532;-0.441186;1.830974;-0.213572;-0.252346;0.191983;-0.732910;0.283447;-0.220947;0.490266;-0.312061;-0.536290;-0.612086
29061;8.857152;-0.416140;1.821618;-0.173319;-0.230337;0.173367;-0.739990;0.277832;-0.217529;0.489663;-0.314763;-0.535866;-0.611557
29062;9.494621;-0.845358;2.006388;-0.155607;-0.166855;0.042557;-0.736816;0.283691;-0.213867;0.488722;-0.316484;-0.535614;-0.611642
29063;10.614690;-1.799653;1.754794;-0.087221;0.003813;-0.121487;-0.733643;0.280273;-0.210938;0.487888;-0.316325;-0.535446;-0.612537
29064;11.169496;-2.670511;1.204633;0.160413;0.292017;-0.231424;-0.735596;0.264893;-0.214355;0.488432;-0.313198;-0.535657;-0.613525
29065;11.350487;-2.976641;0.823054;0.453148;0.568881;-0.189376;-0.727783;0.269531;-0.226562;0.491183;-0.307644;-0.536118;-0.613736
29066;10.642693;-2.945477;0.478255;0.702977;0.723302;0.081029;-0.727295;0.270752;-0.235840;0.496625;-0.301472;-0.536506;-0.612078
29067;9.333812;-2.465252;0.278995;0.891405;0.614839;0.548619;-0.719971;0.258301;-0.246338;0.504403;-0.297139;-0.537085;-0.607310
29068;7.986528;-1.789566;0.291985;1.024645;0.264746;1.116670;-0.716553;0.294678;-0.249268;0.513757;-0.296522;-0.538336;-0.598601
29069;7.171992;-1.231382;0.340546;1.190558;-0.183873;1.619216;-0.711914;0.288330;-0.252686;0.523902;-0.299621;-0.540976;-0.585747
29070;7.119174;-0.651257;0.520230;1.342725;-0.471771;1.928469;-0.700684;0.312988;-0.258301;0.534461;-0.304755;-0.544661;-0.569931
29071;7.261664;-0.069792;0.696557;1.398535;-0.538494;2.061194;-0.698242;0.318359;-0.255127;0.545262;-0.310429;-0.548340;-0.552853
29072;7.667967;0.253769;0.838836;1.357892;-0.434298;2.095056;-0.694336;0.336914;-0.264893;0.556345;-0.315824;-0.551025;-0.535823
29073;8.257971;0.496407;0.878664;1.249513;-0.229272;2.152983;-0.679199;0.353760;-0.264648;0.568097;-0.320934;-0.551882;-0.519321
29074;8.568371;0.749021;0.801388;1.110921;-0.014034;2.296233;-0.666748;0.377930;-0.276611;0.580834;-0.326285;-0.550492;-0.503119
29075;8.699375;1.003513;0.617763;0.956898;0.111665;2.500203;-0.650146;0.402588;-0.277588;0.594306;-0.332636;-0.547031;-0.486734
29076;9.086693;1.275097;0.522971;0.810172;0.104994;2.731100;-0.642334;0.428955;-0.274414;0.607959;-0.340617;-0.542078;-0.469593
29077;9.366564;1.713587;0.672595;0.642084;0.005947;2.938110;-0.612793;0.451416;-0.285400;0.621130;-0.350570;-0.536058;-0.451598
29078;9.473598;2.324213;1.085857;0.377287;-0.204201;3.077784;-0.598389;0.471924;-0.286621;0.632706;-0.363080;-0.529373;-0.433152
29079;9.882329;2.872239;1.478425;-0.012345;-0.480629;3.167147;-0.567871;0.501221;-0.279541;0.641762;-0.378785;-0.522101;-0.414818
29080;10.287072;3.300709;1.814417;-0.410622;-0.742963;3.215641;-0.558105;0.531982;-0.269531;0.648106;-0.397457;-0.514314;-0.396824
29081;10.440448;3.720948;2.027538;-0.770823;-0.965153;3.212145;-0.522461;0.564697;-0.257324;0.651768;-0.418475;-0.506135;-0.379346
29082;10.523312;4.070186;2.255037;-1.074600;-1.134068;3.106252;-0.511963;0.600098;-0.235596;0.652777;-0.440881;-0.497858;-0.362827
29083;11.080229;4.031367;2.286316;-1.300728;-1.262433;2.864110;-0.480957;0.623291;-0.211914;0.651147;-0.463538;-0.490073;-0.347806
29084;12.173610;3.722648;2.373089;-1.360749;-1.312478;2.486629;-0.464111;0.645996;-0.188965;0.647502;-0.484779;-0.483476;-0.334638
29085;13.417947;3.318502;2.440379;-1.279216;-1.209911;2.012863;-0.453369;0.667969;-0.163086;0.642892;-0.503098;-0.478177;-0.323928
29086;14.085638;2.816201;2.273353;-1.032085;-0.885982;1.487447;-0.435791;0.675049;-0.152832;0.638937;-0.516928;-0.473818;-0.316295
29087;14.139512;2.218722;1.611970;-0.558354;-0.427708;0.916049;-0.428955;0.692871;-0.151123;0.637205;-0.524670;-0.470636;-0.311757
29088;15.043819;1.596074;1.064898;0.169820;-0.040997;0.297424;-0.426025;0.691162;-0.138916;0.638534;-0.525087;-0.469970;-0.309331
29089;16.036668;1.653171;1.529457;0.851161;0.106254;-0.205961;-0.419678;0.682129;-0.156006;0.642099;-0.519514;-0.472453;-0.307574
29090;15.838179;2.221401;2.020299;1.262850;0.065723;-0.560606;-0.428467;0.675293;-0.170898;0.646320;-0.510393;-0.477704;-0.305890
29091;14.139777;2.801907;1.952870;1.437553;0.009022;-0.864731;-0.434570;0.669922;-0.190186;0.650175;-0.499182;-0.484915;-0.304875
29092;11.551772;3.293052;1.511457;1.491686;0.013407;-1.211638;-0.444824;0.654785;-0.195801;0.653244;-0.486151;-0.493571;-0.305479
29093;9.462786;3.439225;1.005804;1.483623;0.034256;-1.637812;-0.463623;0.631104;-0.206299;0.655081;-0.471220;-0.503662;-0.308456
29094;8.660689;3.331515;0.804163;1.431731;0.034397;-2.109463;-0.484131;0.613037;-0.233398;0.655239;-0.454406;-0.515274;-0.314117
29095;9.094509;3.218369;1.010451;1.246129;0.059771;-2.538670;-0.501221;0.601562;-0.245117;0.653353;-0.436464;-0.527635;-0.322848
29096;10.501282;3.161915;1.680094;0.783024;0.129160;-2.831657;-0.534668;0.572266;-0.256836;0.648915;-0.419326;-0.539124;-0.335290
29097;12.653624;2.887835;2.132613;0.028427;0.260737;-2.914190;-0.553711;0.538574;-0.250488;0.641809;-0.405276;-0.547762;-0.351837
29098;14.836118;2.466072;2.523316;-0.878437;0.480795;-2.810561;-0.571289;0.524414;-0.247803;0.632549;-0.395660;-0.551877;-0.372513
29099;16.108739;2.068489;2.563846;-1.821854;0.781395;-2.551634;-0.587891;0.499023;-0.240234;0.621934;-0.391015;-0.550244;-0.396908
29100;16.154984;1.534440;1.904855;-2.638403;1.104671;-2.233231;-0.594727;0.504395;-0.229004;0.610680;-0.390660;-0.542746;-0.424125
29101;14.886753;0.958932;0.809091;-3.104999;1.372689;-1.972373;-0.610107;0.495605;-0.212158;0.599428;-0.392528;-0.530834;-0.452574
29102;13.197623;0.529735;-0.078879;-3.155357;1.502307;-1.850591;-0.617676;0.493652;-0.199219;0.588391;-0.394262;-0.517116;-0.480567
29103;11.499227;0.113447;-0.603480;-2.821730;1.450576;-1.865978;-0.618652;0.483398;-0.195068;0.577567;-0.394097;-0.504510;-0.506530
29104;10.166280;-0.208121;-0.739656;-2.212964;1.223722;-2.016140;-0.636475;0.483643;-0.198975;0.566671;-0.390995;-0.495639;-0.529479
29105;9.257233;-0.402225;-0.665660;-1.451555;0.943073;-2.258186;-0.647461;0.457031;-0.194336;0.555661;-0.384283;-0.491924;-0.549161
29106;8.808122;-0.369111;-0.453763;-0.701343;0.657736;-2.528816;-0.667236;0.440186;-0.204346;0.544347;-0.374087;-0.493571;-0.565802
29107;8.672224;-0.217533;-0.195961;-0.067203;0.427487;-2.722909;-0.675537;0.415283;-0.194580;0.532865;-0.361110;-0.499606;-0.579697
29108;8.633417;0.085414;0.153935;0.356110;0.281764;-2.819878;-0.696533;0.381104;-0.210938;0.521290;-0.346357;-0.508357;-0.591495
29109;8.532064;0.374828;0.483305;0.549882;0.196971;-2.854953;-0.707031;0.343750;-0.201660;0.509441;-0.330835;-0.518243;-0.602032
29110;8.563423;0.472671;0.705235;0.570325;0.178254;-2.832162;-0.727539;0.311035;-0.211426;0.497384;-0.315226;-0.527949;-0.611974
29111;8.541187;0.497503;0.848152;0.472150;0.225467;-2.753557;-0.742188;0.273926;-0.219238;0.485397;-0.299953;-0.536458;-0.621796
29112;8.566946;0.412251;0.910022;0.322715;0.320550;-2.616871;-0.750977;0.253906;-0.215820;0.473920;-0.285249;-0.543193;-0.631643
29113;8.586232;0.351566;1.048478;0.141182;0.411613;-2.426954;-0.756348;0.216309;-0.222656;0.463209;-0.271514;-0.547917;-0.641486
29114;8.777295;0.108641;1.071944;-0.027347;0.485587;-2.188682;-0.761475;0.198975;-0.230957;0.453551;-0.259018;-0.550708;-0.651093
29115;8.963411;-0.188587;0.937330;-0.105546;0.589812;-1.920202;-0.760986;0.162842;-0.240234;0.445520;-0.247403;-0.551930;-0.660058
29116;9.120252;-0.545306;0.692332;-0.076797;0.686708;-1.663426;-0.755127;0.150635;-0.244873;0.439297;-0.236268;-0.552284;-0.667966
29117;9.618436;-0.937085;0.474658;0.058495;0.766594;-1.422458;-0.762451;0.138672;-0.254639;0.434964;-0.225255;-0.552516;-0.674383
29118;10.242843;-1.238210;0.294025;0.272559;0.815007;-1.177829;-0.760498;0.120117;-0.263428;0.432565;-0.214283;-0.553231;-0.678900
29119;10.708056;-1.401008;0.102499;0.506171;0.820306;-0.908814;-0.762207;0.103760;-0.278809;0.432079;-0.203652;-0.554698;-0.681280
29120;10.986573;-1.315050;-0.062201;0.708670;0.806018;-0.627907;-0.750732;0.094971;-0.291504;0.433424;-0.193650;-0.556833;-0.681601
29121;10.648117;-1.108554;-0.131168;0.809399;0.771076;-0.361153;-0.748779;0.086670;-0.292725;0.436250;-0.184701;-0.559185;-0.680355
29122;10.606751;-1.101482;-0.142242;0.787255;0.624516;-0.131483;-0.742920;0.078613;-0.303223;0.439633;-0.177720;-0.561551;-0.678085
29123;10.937867;-1.222460;0.117173;0.697323;0.383098;0.149947;-0.750488;0.080811;-0.310303;0.443327;-0.173740;-0.563849;-0.674796
29124;10.917922;-1.164518;0.398645;0.528517;0.083040;0.523060;-0.745850;0.084717;-0.308594;0.447454;-0.173817;-0.565749;-0.670449
29125;10.824245;-1.126215;0.524154;0.299449;-0.171022;0.994921;-0.742676;0.089844;-0.303711;0.452669;-0.178384;-0.566604;-0.665003
29126;9.980157;-0.622682;0.699993;0.013284;-0.415733;1.516587;-0.743652;0.110596;-0.304688;0.459144;-0.187829;-0.565957;-0.658483
29127;9.027382;0.257316;0.995988;-0.344890;-0.727985;2.034140;-0.746338;0.137451;-0.289551;0.466312;-0.202752;-0.563590;-0.651008
29128;8.211544;1.108450;1.616192;-0.786373;-1.141382;2.418177;-0.747559;0.170166;-0.281250;0.472672;-0.223350;-0.559544;-0.643122
29129;8.445249;1.326422;1.889017;-1.215888;-1.552171;2.660324;-0.750000;0.210693;-0.249756;0.477304;-0.248825;-0.554003;-0.635096
29130;9.019567;1.311469;2.249934;-1.491740;-1.834808;2.780260;-0.754395;0.255371;-0.229248;0.480287;-0.277237;-0.547413;-0.626741
29131;9.930197;1.187069;2.562434;-1.679465;-2.002377;2.772405;-0.746338;0.289307;-0.193848;0.481559;-0.306973;-0.540004;-0.618275
29132;11.449308;0.554083;2.587901;-1.758588;-1.973077;2.682170;-0.739258;0.339844;-0.169922;0.481809;-0.336164;-0.531764;-0.609984
29133;12.839728;-0.075207;2.614738;-1.621368;-1.680212;2.579556;-0.731445;0.370850;-0.135254;0.482774;-0.362557;-0.522850;-0.601756
29134;13.598342;-0.393229;2.464459;-1.349506;-1.181309;2.545624;-0.726074;0.400146;-0.120850;0.486191;-0.384935;-0.512998;-0.593529
29135;13.557033;-0.432435;2.185731;-0.953280;-0.666422;2.591322;-0.719971;0.434814;-0.104004;0.493001;-0.403122;-0.502556;-0.584704
29136;12.839328;0.008860;2.071606;-0.554263;-0.380659;2.694359;-0.691650;0.470947;-0.101074;0.502575;-0.418491;-0.492263;-0.574422
29137;11.861963;0.711995;2.220376;-0.253511;-0.401584;2.780163;-0.667969;0.496094;-0.083008;0.513244;-0.432828;-0.482928;-0.562158
29138;11.087491;1.441936;2.382354;-0.105190;-0.625823;2.822728;-0.644775;0.529053;-0.078369;0.523447;-0.447508;-0.474817;-0.547986
29139;10.615259;1.755822;2.287986;0.023061;-0.846798;2.758901;-0.627930;0.547119;-0.071289;0.532652;-0.462126;-0.468215;-0.532443
29140;10.361282;1.917059;2.197116;0.185929;-0.938689;2.566895;-0.610596;0.577148;-0.071289;0.540974;-0.475426;-0.463222;-0.516471
29141;10.245257;2.055780;2.151809;0.341061;-0.864168;2.287504;-0.580811;0.604004;-0.063721;0.548735;-0.486403;-0.459446;-0.501210
29142;10.150126;2.133505;2.069440;0.460646;-0.667834;1.992209;-0.570801;0.622803;-0.068115;0.556288;-0.494701;-0.456294;-0.487453
29143;10.076198;2.114431;1.885961;0.571977;-0.437920;1.734866;-0.553955;0.630615;-0.069824;0.563967;-0.500429;-0.453456;-0.475278
29144;9.845724;1.901373;1.509629;0.738442;-0.264635;1.535740;-0.537842;0.643799;-0.072021;0.572075;-0.503823;-0.451188;-0.464029
29145;9.534215;1.803964;1.247236;0.986218;-0.196949;1.366458;-0.530029;0.655762;-0.075684;0.580703;-0.505034;-0.450171;-0.452847
29146;9.159741;1.867335;1.090044;1.261109;-0.225152;1.214083;-0.518555;0.648926;-0.089600;0.589684;-0.504345;-0.450871;-0.441162
29147;8.732616;2.070150;1.121187;1.479103;-0.340478;1.070421;-0.503662;0.661133;-0.100830;0.598481;-0.502353;-0.453438;-0.428785
29148;8.485513;2.274368;1.083507;1.629727;-0.494138;0.935899;-0.503418;0.675049;-0.110840;0.606697;-0.499524;-0.457758;-0.415755
29149;8.372091;2.575850;1.248278;1.707872;-0.663574;0.819357;-0.493164;0.676270;-0.129150;0.614020;-0.496307;-0.463561;-0.402207
29150;8.358448;3.227894;1.808692;1.606846;-0.821305;0.730211;-0.485107;0.664062;-0.134033;0.619851;-0.493653;-0.470077;-0.388742
29151;8.692326;3.772306;2.502872;1.254614;-0.931362;0.666090;-0.476074;0.675781;-0.136230;0.623444;-0.492809;-0.476166;-0.376461
29152;9.488264;4.044347;3.046644;0.736844;-0.961332;0.610722;-0.472412;0.677246;-0.146240;0.624516;-0.494448;-0.480931;-0.366341
29153;10.710524;4.028540;3.504195;0.109490;-0.886319;0.578638;-0.472900;0.682617;-0.130859;0.623143;-0.498937;-0.483473;-0.359178
29154;12.003305;3.806098;3.709705;-0.474404;-0.695439;0.567192;-0.470459;0.685059;-0.127441;0.620021;-0.505805;-0.483271;-0.355224
29155;13.014126;3.305361;3.437572;-0.898871;-0.384101;0.539913;-0.464600;0.690918;-0.114014;0.616236;-0.513788;-0.480279;-0.354411
29156;13.797807;2.510083;2.755119;-1.023029;-0.006479;0.439794;-0.455322;0.705322;-0.104980;0.613080;-0.520846;-0.475360;-0.356209
29157;15.086288;1.767378;2.210693;-0.804066;0.315677;0.261570;-0.453613;0.712891;-0.089111;0.611580;-0.525085;-0.470183;-0.359422
29158;16.321760;1.512567;2.232189;-0.400549;0.450304;0.062565;-0.457031;0.704346;-0.087158;0.611744;-0.526065;-0.466364;-0.362670
29159;16.836677;1.509657;2.483119;0.062390;0.425494;-0.162530;-0.460693;0.702881;-0.091797;0.613147;-0.523869;-0.465044;-0.365166
29160;15.500895;1.659061;1.997882;0.588870;0.523536;-0.511427;-0.457520;0.707275;-0.108398;0.616143;-0.517311;-0.466329;-0.367824
29161;12.877403;2.010647;1.100737;1.174146;0.715666;-1.062082;-0.473389;0.699463;-0.131836;0.620638;-0.504948;-0.470736;-0.371810
29162;10.694543;2.294461;0.451834;1.676755;0.855886;-1.748076;-0.488037;0.689209;-0.150391;0.625463;-0.486691;-0.478705;-0.377849
29163;9.685154;2.786590;0.554770;1.924416;0.820794;-2.456919;-0.513184;0.650879;-0.173340;0.628545;-0.464144;-0.490226;-0.386238
29164;10.021334;3.021325;1.015062;1.765842;0.711538;-3.072076;-0.546631;0.623779;-0.200928;0.628071;-0.439888;-0.503793;-0.397767
29165;11.034773;2.925330;1.532014;1.234265;0.603121;-3.504033;-0.572754;0.595215;-0.210205;0.623164;-0.416545;-0.517275;-0.413016
29166;12.384700;2.564959;1.857416;0.432512;0.527550;-3.687814;-0.608887;0.560303;-0.221680;0.613900;-0.396429;-0.528522;-0.432013
29167;13.556948;2.064637;2.142337;-0.490037;0.521367;-3.637264;-0.639648;0.531250;-0.220703;0.601146;-0.380893;-0.535802;-0.454378
29168;14.404952;1.557311;2.245605;-1.429263;0.553905;-3.378286;-0.667236;0.488281;-0.220215;0.585958;-0.370730;-0.538029;-0.479310
29169;14.772837;1.033882;2.011485;-2.244748;0.629740;-2.943250;-0.681396;0.466309;-0.201416;0.569757;-0.365835;-0.534761;-0.505541
29170;14.432707;0.532323;1.459734;-2.784430;0.777194;-2.416117;-0.698486;0.459473;-0.190430;0.554226;-0.364870;-0.526384;-0.531623
29171;13.599398;-0.118332;0.558008;-2.916572;0.992526;-1.945330;-0.705322;0.442383;-0.183105;0.540793;-0.365276;-0.514492;-0.556250
29172;12.579914;-0.592490;-0.050352;-2.629762;1.220699;-1.655564;-0.721924;0.445801;-0.181641;0.530096;-0.364261;-0.501583;-0.578555
29173;11.532511;-0.853124;-0.479827;-2.015748;1.387696;-1.538451;-0.734375;0.424805;-0.189453;0.522167;-0.359970;-0.490205;-0.597882
29174;10.411012;-0.803412;-0.635860;-1.246339;1.430149;-1.557810;-0.727295;0.413818;-0.194580;0.516365;-0.351860;-0.482292;-0.613967
29175;9.472893;-0.565751;-0.661811;-0.487383;1.330924;-1.689008;-0.742920;0.390381;-0.208008;0.511527;-0.340331;-0.478899;-0.627034
29176;8.777370;-0.207171;-0.649958;0.142566;1.157120;-1.885615;-0.739746;0.366699;-0.225342;0.506585;-0.326125;-0.479939;-0.637709
29177;8.318473;0.097397;-0.560104;0.585467;0.920672;-2.089468;-0.753174;0.346680;-0.232666;0.500637;-0.310373;-0.484718;-0.646590
29178;8.208876;0.406650;-0.352366;0.824103;0.696765;-2.260881;-0.761719;0.306641;-0.254395;0.493278;-0.294014;-0.491968;-0.654370
29179;8.100452;0.550136;-0.166527;0.892165;0.502335;-2.365826;-0.768799;0.279053;-0.272705;0.484500;-0.277873;-0.500432;-0.661524
29180;8.040763;0.663838;0.058447;0.821938;0.320546;-2.383735;-0.771484;0.239502;-0.268799;0.474488;-0.262817;-0.509061;-0.668315
29181;8.029949;0.691831;0.227580;0.639148;0.167115;-2.335285;-0.786377;0.205322;-0.271240;0.463496;-0.249432;-0.516961;-0.675061
29182;8.090355;0.563636;0.313995;0.418263;0.073332;-2.237580;-0.785156;0.172363;-0.275879;0.452017;-0.237753;-0.523583;-0.681920
29183;8.169854;0.414972;0.379235;0.206305;0.020720;-2.097539;-0.792725;0.155029;-0.284668;0.440540;-0.227702;-0.528750;-0.688839
29184;8.203407;0.282371;0.579739;-0.000460;-0.026629;-1.907101;-0.797363;0.121094;-0.280518;0.429439;-0.219457;-0.532398;-0.695682
29185;8.306208;0.123599;0.597266;-0.168615;-0.043419;-1.682589;-0.799805;0.101562;-0.268555;0.419164;-0.212857;-0.534606;-0.702274
29186;8.542485;-0.142599;0.549576;-0.267967;-0.022005;-1.445672;-0.806396;0.088867;-0.275879;0.410130;-0.207499;-0.535649;-0.708391
29187;8.661511;-0.385435;0.504552;-0.293672;0.032860;-1.211230;-0.802246;0.067871;-0.281006;0.402634;-0.202924;-0.535879;-0.713822
29188;9.038817;-0.679407;0.462223;-0.266556;0.060099;-0.987143;-0.808105;0.063965;-0.277100;0.396607;-0.199079;-0.535755;-0.718357
29189;9.413610;-0.994828;0.470179;-0.200023;0.072866;-0.744272;-0.808594;0.058105;-0.271973;0.392188;-0.196013;-0.535559;-0.721764
29190;9.696684;-1.197858;0.460867;-0.117842;0.055523;-0.467078;-0.801514;0.044678;-0.278809;0.389488;-0.194016;-0.535450;-0.723844
29191;9.465929;-1.202612;0.552592;-0.048385;-0.009734;-0.167718;-0.806641;0.039795;-0.278320;0.388416;-0.193522;-0.535485;-0.724526
29192;8.955955;-0.906850;1.008557;-0.088113;-0.200262;0.146857;-0.812500;0.035645;-0.285400;0.388336;-0.195712;-0.535392;-0.724049
29193;9.944393;-1.321307;1.248761;-0.224312;-0.446372;0.448916;-0.800781;0.046875;-0.271729;0.388752;-0.201175;-0.534773;-0.722785
29194;11.249390;-2.035504;1.428922;-0.260391;-0.563087;0.803737;-0.815186;0.058105;-0.262695;0.390713;-0.209032;-0.533697;-0.720290
29195;12.145471;-2.270544;1.579177;-0.213828;-0.653794;1.287769;-0.819092;0.085449;-0.256836;0.395218;-0.219414;-0.532299;-0.715764
29196;12.570337;-1.987688;1.722285;-0.110385;-0.701994;1.929347;-0.823975;0.107910;-0.254395;0.403441;-0.232545;-0.530386;-0.708413
29197;11.204683;-0.722781;2.111070;-0.067255;-0.767847;2.601697;-0.817383;0.139648;-0.229248;0.415259;-0.248801;-0.527434;-0.698192
29198;9.728098;0.519371;2.488763;-0.222123;-0.950388;3.096168;-0.817383;0.187500;-0.229980;0.428569;-0.268679;-0.522864;-0.686114
29199;8.974256;1.155524;2.638558;-0.411876;-1.219222;3.395514;-0.813965;0.223877;-0.200928;0.441635;-0.291856;-0.517064;-0.672624
29200;8.712316;1.655056;3.094727;-0.583884;-1.610501;3.533335;-0.805908;0.280762;-0.182129;0.452919;-0.318166;-0.510895;-0.657740
29201;9.479984;1.776140;3.672003;-0.790324;-2.087909;3.516894;-0.796387;0.327148;-0.148193;0.461009;-0.347440;-0.504854;-0.641777
29202;10.909293;1.385412;4.217881;-0.977027;-2.396793;3.338308;-0.793945;0.374023;-0.115234;0.465728;-0.377907;-0.498901;-0.625605
29203;12.996030;0.413956;4.246489;-1.098848;-2.390840;3.091132;-0.778076;0.415771;-0.079346;0.468233;-0.407340;-0.492469;-0.610169
29204;15.169042;-0.683300;3.760566;-0.914687;-1.886372;2.880735;-0.756104;0.446533;-0.058838;0.471878;-0.432214;-0.485217;-0.595891
29205;16.310067;-1.249351;3.095323;-0.440978;-0.978788;2.818575;-0.744385;0.488037;-0.036133;0.480224;-0.450144;-0.476600;-0.582758
29206;16.018822;-1.315317;2.397111;0.190514;-0.061886;2.912025;-0.716064;0.525635;-0.043457;0.494734;-0.461194;-0.466734;-0.569823
29207;14.722353;-0.893479;1.898825;0.879436;0.490211;3.027197;-0.694580;0.563232;-0.057373;0.514259;-0.466933;-0.457111;-0.555483
29208;13.323288;-0.118114;1.708279;1.538158;0.629536;3.082363;-0.666504;0.591309;-0.079102;0.536726;-0.469055;-0.449365;-0.538502
29209;11.928089;0.806015;1.703375;2.067063;0.450071;3.060827;-0.628906;0.609863;-0.097412;0.560000;-0.469112;-0.444465;-0.518445
29210;10.848710;1.350895;1.319144;2.511518;0.161475;2.874233;-0.608398;0.635742;-0.115234;0.582578;-0.467189;-0.443116;-0.495969
29211;10.357365;1.689301;0.972303;2.884269;-0.067864;2.520023;-0.583984;0.643555;-0.159912;0.603700;-0.462622;-0.445343;-0.472437
29212;10.231711;2.140721;0.953932;3.105174;-0.233096;2.111397;-0.561035;0.656738;-0.181396;0.622845;-0.455614;-0.450395;-0.449027
29213;10.384125;2.603928;1.057029;3.122489;-0.321457;1.776899;-0.541992;0.658936;-0.210938;0.639881;-0.447160;-0.456810;-0.426527
29214;10.428067;2.827348;1.074057;3.012924;-0.309464;1.568597;-0.534912;0.656982;-0.246094;0.655264;-0.438069;-0.463152;-0.405234
29215;10.093997;2.890491;0.795402;2.903347;-0.234019;1.430404;-0.519043;0.660400;-0.264160;0.669565;-0.428449;-0.468854;-0.385083
29216;9.593932;3.098235;0.668154;2.808946;-0.157053;1.264789;-0.502686;0.659424;-0.291992;0.682830;-0.418162;-0.474085;-0.366233
29217;8.978122;3.264931;0.619730;2.676194;-0.120057;1.058944;-0.497559;0.645020;-0.315430;0.694725;-0.407444;-0.479120;-0.348985
29218;8.483881;3.390833;0.677523;2.505467;-0.142663;0.838209;-0.488525;0.639404;-0.343506;0.704938;-0.396679;-0.484281;-0.333437
29219;7.895066;3.412547;0.653473;2.297361;-0.201213;0.622342;-0.486084;0.619629;-0.365723;0.713314;-0.386252;-0.489703;-0.319661
29220;7.511590;3.290625;0.543908;2.127814;-0.279123;0.429481;-0.477295;0.613037;-0.376709;0.720052;-0.376110;-0.495575;-0.307362
29221;7.447451;3.208163;0.532451;1.985745;-0.376082;0.269233;-0.479492;0.602051;-0.397705;0.725309;-0.366288;-0.502011;-0.296219
29222;7.644232;3.205960;0.681521;1.830010;-0.480974;0.133399;-0.484619;0.593506;-0.413086;0.729119;-0.356997;-0.508973;-0.286154
29223;8.060086;3.252348;0.943095;1.615493;-0.571004;0.007989;-0.489014;0.576172;-0.430908;0.731444;-0.348609;-0.516227;-0.277436
29224;8.925371;3.164904;1.182213;1.343454;-0.632144;-0.099991;-0.493408;0.570801;-0.435547;0.732335;-0.341492;-0.523443;-0.270327
29225;9.882411;3.094232;1.408913;1.052488;-0.652786;-0.196301;-0.497070;0.554688;-0.437012;0.731993;-0.335729;-0.530333;-0.264990
29226;10.505266;2.977977;1.586658;0.761238;-0.631737;-0.297986;-0.510986;0.545898;-0.437256;0.730636;-0.331215;-0.536685;-0.261605
29227;11.310912;2.608444;1.450074;0.536655;-0.588916;-0.440627;-0.517334;0.543457;-0.434570;0.728490;-0.327313;-0.542644;-0.260203
29228;11.707134;2.411404;1.579871;0.442807;-0.581402;-0.604838;-0.532959;0.531006;-0.429932;0.725721;-0.323201;-0.548768;-0.260237
29229;11.531447;2.606475;1.969543;0.331352;-0.723952;-0.765814;-0.541260;0.525635;-0.430420;0.721596;-0.319311;-0.555905;-0.261360
29230;11.835802;2.548498;2.379875;0.206215;-0.959747;-0.995545;-0.553711;0.516113;-0.428467;0.715465;-0.315586;-0.564735;-0.263798
29231;12.079343;2.696927;3.112176;0.066144;-1.200985;-1.266792;-0.577148;0.503418;-0.411621;0.707109;-0.311895;-0.575308;-0.267842
29232;12.747052;2.441226;3.154910;-0.093623;-1.231634;-1.574123;-0.603516;0.484131;-0.411865;0.697330;-0.307663;-0.586359;-0.274330
29233;13.962360;1.781604;2.585142;-0.094092;-0.892932;-1.979540;-0.627441;0.475342;-0.389404;0.688065;-0.300587;-0.596300;-0.283973
29234;15.337824;0.934232;1.924672;0.079733;-0.266418;-2.516396;-0.638916;0.442139;-0.392578;0.680811;-0.288248;-0.604171;-0.297298
29235;16.108592;-0.072043;1.222659;0.375923;0.476729;-3.124512;-0.657471;0.404785;-0.397461;0.676112;-0.269162;-0.609675;-0.314200
29236;16.051695;-1.330589;0.386915;0.846655;0.977928;-3.725800;-0.673340;0.364014;-0.418945;0.672837;-0.242820;-0.614394;-0.332939
29237;16.274370;-2.015248;-0.039594;1.594001;0.997486;-4.296590;-0.682617;0.302979;-0.421875;0.668716;-0.208999;-0.621437;-0.350649
29238;15.875603;-1.785384;0.557025;2.429046;0.696819;-4.799616;-0.692139;0.229980;-0.453125;0.661834;-0.168431;-0.632368;-0.365675
29239;14.372457;-0.752454;1.207760;3.012728;0.055164;-5.058297;-0.709717;0.141602;-0.461914;0.650138;-0.124865;-0.647577;-0.377324
29240;13.515936;-0.159606;1.314724;3.440704;-0.856552;-4.961612;-0.721191;0.052734;-0.447754;0.632660;-0.082058;-0.667358;-0.384240
29241;13.886750;0.610689;1.069181;4.032328;-1.784275;-4.584952;-0.734863;-0.018066;-0.426758;0.609939;-0.040976;-0.691870;-0.384202
29242;15.050621;2.212892;1.641790;4.457202;-2.359258;-4.080250;-0.743652;-0.104248;-0.387939;0.583929;-0.002365;-0.718510;-0.377843
29243;15.000336;4.148952;2.958792;4.228989;-2.530137;-3.713636;-0.746338;-0.169189;-0.340332;0.556429;0.032417;-0.743259;-0.370002
29244;14.672851;5.050742;3.764689;3.170160;-2.268269;-3.535979;-0.741211;-0.245361;-0.303711;0.530120;0.061932;-0.761884;-0.366973
29245;13.403426;4.681843;3.911290;1.753413;-1.744960;-3.423978;-0.742432;-0.300293;-0.272949;0.507376;0.085987;-0.772720;-0.371591
29246;11.954320;3.777474;3.718447;0.390410;-1.248637;-3.206340;-0.733154;-0.341064;-0.252197;0.488961;0.104330;-0.776592;-0.383323
29247;10.378022;3.104904;3.858693;-0.794234;-0.905348;-2.828145;-0.717529;-0.350586;-0.252686;0.474651;0.116418;-0.775033;-0.400595
29248;9.332083;2.479459;4.082052;-1.908928;-0.729545;-2.345963;-0.699463;-0.376465;-0.254150;0.463863;0.121492;-0.769011;-0.422720
29249;8.465602;1.438246;3.838022;-2.798144;-0.443620;-1.835581;-0.680664;-0.381592;-0.277832;0.457274;0.120775;-0.758708;-0.447970
29250;7.675645;0.250286;3.211581;-3.310329;-0.003265;-1.348130;-0.690186;-0.375244;-0.304688;0.455429;0.116564;-0.744670;-0.473777
29251;7.067650;-1.084855;2.274133;-3.378532;0.588096;-0.877354;-0.672852;-0.374756;-0.331543;0.458787;0.111399;-0.727924;-0.497224
29252;6.667265;-2.352130;1.352328;-2.973093;1.249715;-0.398941;-0.654053;-0.357666;-0.365479;0.467402;0.107531;-0.710191;-0.515364
29253;6.008233;-3.135002;0.596426;-2.218131;1.855486;0.120489;-0.651855;-0.339355;-0.396240;0.480859;0.106053;-0.693341;-0.526123
29254;5.502882;-3.363370;0.149718;-1.245742;2.247906;0.645317;-0.635986;-0.317383;-0.413574;0.497778;0.107097;-0.679277;-0.528516
29255;5.157960;-3.227098;-0.001017;-0.227164;2.448206;1.166921;-0.625488;-0.309082;-0.445801;0.516976;0.110237;-0.668993;-0.522524
29256;5.201030;-2.814990;-0.269395;0.751618;2.491180;1.685455;-0.612305;-0.296631;-0.467041;0.537470;0.114821;-0.662863;-0.508482
29257;5.961172;-2.195875;-0.737462;1.734030;2.484753;2.204442;-0.600098;-0.288330;-0.482422;0.558750;0.120814;-0.660870;-0.486264
29258;7.172568;-1.256921;-1.262485;2.696791;2.478474;2.778660;-0.596436;-0.288330;-0.496094;0.580671;0.127953;-0.662570;-0.455467
29259;8.858169;0.782717;-1.392759;3.466609;2.610565;3.351138;-0.592529;-0.291992;-0.493408;0.603637;0.135930;-0.665974;-0.416683
29260;10.170052;2.963458;-1.247696;3.683053;2.971667;3.847260;-0.585938;-0.282471;-0.500732;0.628668;0.143179;-0.667306;-0.372800
29261;11.132413;4.338273;-1.346265;3.421159;3.430624;4.220773;-0.582764;-0.276855;-0.518311;0.655998;0.148014;-0.664030;-0.326836
29262;11.311211;4.971860;-1.663227;2.941758;3.857069;4.433226;-0.568848;-0.267090;-0.541016;0.684918;0.149776;-0.655417;-0.280860
29263;10.877104;4.837684;-1.964901;2.517792;3.971878;4.463333;-0.544678;-0.240479;-0.563477;0.713020;0.148774;-0.643238;-0.236037
29264;10.377680;4.060417;-2.237329;2.334094;3.725443;4.324182;-0.530762;-0.239502;-0.581299;0.737754;0.146520;-0.630185;-0.192661
29265;10.296394;2.547830;-2.493212;2.501324;3.157683;4.146472;-0.518066;-0.234131;-0.604736;0.757167;0.144944;-0.619094;-0.149704
29266;11.115836;0.516732;-2.826513;3.128022;2.476093;3.863804;-0.508789;-0.223633;-0.598633;0.770247;0.147602;-0.611347;-0.105778
29267;13.684066;-0.492318;-2.506216;3.915963;1.895796;3.628297;-0.513916;-0.246094;-0.593506;0.777492;0.155679;-0.606376;-0.059824
29268;17.152856;-0.577272;-2.129477;4.458010;1.614387;3.684913;-0.506592;-0.252930;-0.586182;0.780782;0.166473;-0.602117;-0.010981
29269;19.334047;0.635693;-1.954046;4.730092;1.756407;4.124398;-0.497803;-0.284180;-0.581055;0.782298;0.176390;-0.595908;0.042317
29270;19.377289;1.947917;-1.983112;4.644465;2.137809;4.703772;-0.507812;-0.285889;-0.570068;0.783137;0.182183;-0.586197;0.099390
29271;17.721168;2.491450;-2.645184;4.466965;2.507215;4.938260;-0.507568;-0.292725;-0.566406;0.783138;0.184740;-0.572549;0.157334
29272;15.700578;2.949488;-3.009419;4.365924;2.631071;4.694856;-0.513428;-0.301270;-0.565430;0.781493;0.187000;-0.555875;0.212845
29273;13.548651;3.013365;-2.811291;4.186251;2.409914;4.045707;-0.511719;-0.313477;-0.561035;0.777851;0.190917;-0.538243;0.262285
29274;11.671244;2.847722;-2.099549;3.948322;1.763163;3.128191;-0.518311;-0.324463;-0.545410;0.771834;0.198365;-0.522579;0.303043
29275;10.316029;2.674811;-0.834272;3.541679;0.713176;2.181617;-0.524658;-0.347900;-0.534668;0.763057;0.209653;-0.512283;0.333700
29276;10.477411;2.293779;0.161038;2.975401;-0.411567;1.442485;-0.534180;-0.357666;-0.501465;0.751753;0.223417;-0.508904;0.354921
29277;11.141531;1.559789;0.548573;2.420341;-1.147998;0.970960;-0.550293;-0.375732;-0.486572;0.739252;0.237737;-0.510560;0.369210
29278;11.316720;1.045993;0.538385;1.982859;-1.438745;0.695760;-0.562744;-0.383789;-0.460693;0.726853;0.251312;-0.514549;0.379164
29279;11.232959;0.249785;0.049987;1.798210;-1.376362;0.591283;-0.585205;-0.387207;-0.428467;0.715138;0.263920;-0.518313;0.387654
29280;10.823624;-0.380518;-0.483928;1.987977;-1.059579;0.666642;-0.599609;-0.400635;-0.403809;0.703858;0.276213;-0.519545;0.397949
29281;10.293550;-0.501419;-0.822491;2.433275;-0.634229;0.889275;-0.612793;-0.408447;-0.377930;0.692347;0.288624;-0.517093;0.412270
29282;9.769131;-0.147080;-0.909462;2.946057;-0.184657;1.184020;-0.619141;-0.414551;-0.359863;0.680114;0.301008;-0.510687;0.431322
29283;9.283900;0.498889;-0.753714;3.327348;0.219373;1.450844;-0.631592;-0.420898;-0.323242;0.667133;0.312721;-0.500878;0.454160
29284;8.723438;1.134780;-0.529060;3.467719;0.496457;1.612919;-0.642334;-0.437744;-0.313965;0.653678;0.323185;-0.488934;0.478749
29285;8.181500;1.505501;-0.419236;3.412892;0.579672;1.678932;-0.656006;-0.427246;-0.294678;0.639772;0.332417;-0.476431;0.503193
29286;7.874581;1.595080;-0.401297;3.271143;0.479819;1.709061;-0.660156;-0.430908;-0.268311;0.625101;0.340864;-0.464667;0.526447
29287;7.958805;1.498369;-0.467346;3.143819;0.285100;1.773643;-0.671143;-0.431152;-0.244141;0.609169;0.348934;-0.454226;0.548486
29288;8.042130;1.660650;-0.284557;3.025090;0.058132;1.912308;-0.692871;-0.416992;-0.225830;0.591543;0.356601;-0.445478;0.569616
29289;8.366351;2.195221;0.246876;2.820918;-0.205355;2.118219;-0.706787;-0.405029;-0.213623;0.572049;0.363438;-0.439221;0.589710
29290;8.839342;2.918181;1.113373;2.416837;-0.468022;2.333954;-0.729980;-0.388672;-0.183105;0.551283;0.368549;-0.436492;0.608057
29291;9.381749;3.557486;1.833576;1.825363;-0.703769;2.532388;-0.743408;-0.366699;-0.160156;0.530055;0.371141;-0.438124;0.623974
29292;9.894739;4.065228;2.412739;1.130111;-0.876155;2.703991;-0.771240;-0.341064;-0.147705;0.509096;0.370683;-0.444364;0.637147
29293;10.040432;4.397569;2.684372;0.431287;-0.980629;2.824678;-0.793457;-0.312256;-0.130371;0.488942;0.367134;-0.454842;0.647508
29294;9.857512;4.467453;2.653947;-0.137778;-1.088227;2.827041;-0.806641;-0.262939;-0.106689;0.469799;0.361610;-0.468543;0.654977
29295;9.720584;4.365477;2.507781;-0.484145;-1.193207;2.688262;-0.818848;-0.234619;-0.104004;0.451753;0.355621;-0.483830;0.659819
29296;9.774703;4.035769;2.338017;-0.584762;-1.317619;2.431269;-0.837402;-0.198730;-0.085938;0.434654;0.350771;-0.499089;0.662530
29297;10.233422;3.594298;2.168065;-0.392466;-1.458072;2.048796;-0.845947;-0.167725;-0.062988;0.418304;0.348812;-0.512423;0.663909
29298;10.910840;3.201269;2.285864;0.010666;-1.572080;1.546380;-0.849121;-0.147949;-0.049805;0.402913;0.350902;-0.522258;0.664662
29299;11.895653;2.824100;2.370159;0.509728;-1.622339;0.959651;-0.855957;-0.136475;-0.029541;0.388975;0.357399;-0.527622;0.665267
29300;13.113642;2.703109;2.689402;0.972514;-1.604810;0.362058;-0.864014;-0.130859;0.000977;0.376951;0.367839;-0.528442;0.665846
29301;15.616851;2.554466;3.032502;1.309195;-1.592482;-0.144621;-0.860352;-0.136719;0.024658;0.366660;0.381405;-0.525652;0.666169
29302;17.928262;3.143563;4.103569;1.428196;-1.499679;-0.397747;-0.856445;-0.132080;0.054443;0.357694;0.395819;-0.520948;0.666330
29303;17.961104;4.373158;4.865100;0.983559;-1.168748;-0.439938;-0.853027;-0.146484;0.067139;0.351781;0.407167;-0.517450;0.665365
29304;15.836595;4.504710;4.315720;0.318641;-0.558374;-0.660762;-0.852295;-0.159912;0.078857;0.351942;0.414094;-0.515026;0.662881
29305;12.861468;4.305272;3.661705;-0.139541;-0.117255;-1.121528;-0.852783;-0.175781;0.080811;0.358098;0.419195;-0.512197;0.658556
29306;10.339358;4.350439;3.650919;-0.421831;-0.090291;-1.660013;-0.846924;-0.193115;0.081299;0.368260;0.425548;-0.508867;0.651420
29307;9.374344;4.276189;3.686098;-0.603588;-0.369232;-2.212426;-0.839111;-0.229736;0.085938;0.380778;0.435079;-0.505261;0.640645
29308;10.423266;3.642360;3.495991;-0.603795;-0.580346;-2.742474;-0.822510;-0.257812;0.088135;0.395061;0.447762;-0.500151;0.627124
29309;11.833876;2.961999;3.239908;-0.478977;-0.498455;-3.223311;-0.801270;-0.309326;0.088379;0.411475;0.462133;-0.491982;0.612434
29310;13.421073;2.411895;2.989255;-0.319785;-0.263749;-3.615712;-0.780518;-0.356934;0.094238;0.429900;0.477071;-0.480260;0.597444
29311;15.165878;1.814189;2.689603;-0.141482;0.104007;-3.900674;-0.749756;-0.404785;0.092285;0.450086;0.491479;-0.464715;0.583020
29312;16.254013;1.409853;2.517427;0.023277;0.500161;-4.057257;-0.715088;-0.452637;0.081787;0.471394;0.504633;-0.445717;0.569623
29313;16.382998;1.413968;2.364659;0.062969;0.829894;-4.079996;-0.675049;-0.487305;0.090820;0.493312;0.515857;-0.424605;0.556997
29314;15.690840;1.427573;1.971071;-0.009346;1.094634;-4.005018;-0.639648;-0.538086;0.069824;0.515538;0.524660;-0.402547;0.544893
29315;14.376402;1.363957;1.435308;-0.095350;1.269138;-3.862048;-0.604492;-0.571533;0.052734;0.537471;0.531197;-0.380279;0.533238
29316;12.685349;1.318471;1.028251;-0.143604;1.279171;-3.692133;-0.562744;-0.615234;0.045166;0.558300;0.536336;-0.358513;0.521645
29317;10.934029;1.201219;0.755103;-0.105771;1.123171;-3.558684;-0.514404;-0.642334;0.025391;0.577345;0.541377;-0.337542;0.509557
29318;9.408388;1.251746;0.750625;-0.044465;0.852635;-3.472406;-0.475098;-0.665527;0.023438;0.594451;0.547107;-0.317692;0.496361
29319;8.368732;1.198349;0.815063;-0.019961;0.551166;-3.411415;-0.439941;-0.681641;0.024170;0.609884;0.553564;-0.299244;0.481728
29320;7.689482;1.022311;0.803082;-0.034239;0.317093;-3.321654;-0.386963;-0.712402;0.015869;0.623949;0.560213;-0.282221;0.466047
29321;7.175993;0.748240;0.624654;-0.028955;0.179923;-3.185052;-0.355469;-0.730469;0.017090;0.636675;0.566678;-0.266325;0.450102
29322;6.672902;0.463912;0.486668;0.020502;0.131512;-2.997011;-0.315918;-0.743164;0.017334;0.647931;0.572785;-0.251217;0.434733
29323;6.203051;0.322376;0.495032;0.072842;0.125063;-2.769731;-0.272949;-0.744629;0.023193;0.657725;0.578384;-0.236900;0.420415
29324;5.734884;0.293269;0.659381;0.069906;0.127248;-2.499540;-0.238281;-0.758301;0.019287;0.666271;0.583139;-0.223776;0.407377
29325;5.453078;0.363966;0.864472;-0.038746;0.096463;-2.171685;-0.216553;-0.766113;0.014404;0.673919;0.586557;-0.212706;0.395651
29326;5.355122;0.359279;1.039830;-0.208871;0.054305;-1.797428;-0.196045;-0.769043;0.021973;0.680902;0.588329;-0.204210;0.385408
29327;5.483146;0.308714;1.296254;-0.417921;-0.000668;-1.379346;-0.163330;-0.782471;0.009766;0.687347;0.588266;-0.198715;0.376842
29328;5.848164;0.121678;1.411585;-0.594211;-0.011044;-0.945370;-0.152100;-0.770264;-0.001465;0.693196;0.586436;-0.195944;0.370377
29329;6.543838;0.040019;1.389285;-0.700516;0.053237;-0.498062;-0.137451;-0.768555;-0.003174;0.698239;0.583020;-0.195308;0.366613
29330;7.328610;-0.111564;1.336738;-0.715664;0.206739;-0.059872;-0.147461;-0.770264;-0.021729;0.702234;0.578305;-0.195953;0.366106
29331;8.389794;-0.207620;1.204833;-0.666643;0.370679;0.396095;-0.148926;-0.770264;-0.021240;0.704835;0.572605;-0.197685;0.369122
29332;9.660750;-0.274780;0.977669;-0.552132;0.519144;0.865056;-0.157959;-0.771973;-0.032227;0.705639;0.566307;-0.200426;0.375766
29333;10.472110;-0.135793;0.860386;-0.426349;0.596626;1.327124;-0.178711;-0.769531;-0.045166;0.704439;0.559663;-0.204482;0.385655
29334;11.166820;-0.112292;0.731424;-0.356255;0.565327;1.740833;-0.200439;-0.763428;-0.043213;0.701385;0.552714;-0.210396;0.397869
29335;12.729212;-0.710637;0.352934;-0.289073;0.462696;2.076391;-0.223389;-0.759277;-0.044922;0.696528;0.545755;-0.218185;0.411577
29336;14.477588;-1.378851;-0.032528;-0.103436;0.433206;2.420047;-0.254639;-0.737061;-0.053711;0.689333;0.539148;-0.227003;0.427328
29337;14.978589;-1.145170;-0.085938;0.105793;0.397733;2.849795;-0.294678;-0.733154;-0.050781;0.679254;0.532788;-0.237112;0.445566
29338;14.054721;0.206746;0.511333;0.129808;0.134077;3.360566;-0.335938;-0.717285;-0.049561;0.666185;0.526169;-0.250745;0.465264
29339;12.131655;2.211092;1.928792;-0.291631;-0.523570;3.819335;-0.381592;-0.707275;-0.052734;0.651201;0.518321;-0.271454;0.483316
29340;11.023704;3.674355;2.947910;-1.130621;-1.471892;4.025029;-0.421631;-0.683838;-0.052979;0.636083;0.508648;-0.301254;0.495905
29341;11.049988;3.857684;3.571326;-2.113543;-2.463799;3.963922;-0.475098;-0.635254;-0.069336;0.621878;0.497205;-0.339629;0.500706
29342;11.737674;3.548400;3.889236;-2.938136;-3.180700;3.564810;-0.531738;-0.608887;-0.064209;0.609478;0.484609;-0.382820;0.497131
29343;12.870142;2.661485;3.924521;-3.662446;-3.282592;2.960375;-0.563477;-0.572021;-0.078857;0.600815;0.469598;-0.426226;0.486653
29344;13.977324;0.693101;3.066107;-3.853639;-2.594601;2.411639;-0.588135;-0.549561;-0.095947;0.596305;0.451799;-0.463923;0.474419
29345;14.262838;-1.014831;2.282426;-3.228986;-1.422276;2.038370;-0.621094;-0.514404;-0.114502;0.594536;0.433217;-0.491214;0.466431
29346;13.637191;-2.056025;1.762130;-2.107832;-0.276783;1.831517;-0.629150;-0.494141;-0.127441;0.593705;0.416211;-0.507311;0.465745
29347;12.459653;-2.594160;1.592539;-0.836008;0.419677;1.653944;-0.645264;-0.478760;-0.140381;0.591857;0.403375;-0.514208;0.471788
29348;11.005086;-2.580757;1.371669;0.423373;0.551527;1.446446;-0.651611;-0.458496;-0.138916;0.587028;0.397033;-0.514696;0.482547
29349;9.570930;-2.018864;1.316840;1.610764;0.215036;1.257063;-0.667725;-0.448975;-0.135010;0.577449;0.398569;-0.511308;0.496246
29350;8.656105;-1.308858;1.290736;2.591643;-0.411361;1.184000;-0.673828;-0.444580;-0.106445;0.561994;0.407552;-0.506414;0.511477
29351;8.747840;-1.429614;1.078768;3.755561;-1.006565;1.230355;-0.682617;-0.440430;-0.064941;0.539394;0.423972;-0.499067;0.529372
29352;8.833897;0.943290;1.721804;4.425514;-1.347971;1.317638;-0.700195;-0.432373;-0.011719;0.511879;0.443958;-0.489921;0.548507
29353;9.118357;2.779225;1.743974;4.402584;-1.572012;1.283895;-0.707275;-0.423340;0.040527;0.482860;0.464289;-0.480915;0.565688
29354;8.836994;3.327730;2.835402;3.261386;-1.374883;1.371862;-0.714600;-0.408447;0.076416;0.457994;0.478140;-0.476198;0.578670
29355;9.827755;2.540191;2.251980;2.791928;-1.024030;1.388210;-0.732910;-0.390625;0.111572;0.435912;0.488027;-0.472050;0.590745
29356;9.590714;3.170703;2.401273;2.206359;-0.538071;1.521108;-0.741943;-0.362305;0.140381;0.417191;0.492566;-0.469256;0.602602
29357;9.427775;2.992871;2.158378;1.578907;-0.085472;1.613865;-0.744873;-0.342773;0.147949;0.402168;0.492075;-0.468209;0.613924
29358;9.158004;2.817874;1.829477;1.135699;0.336651;1.651516;-0.762451;-0.321777;0.145752;0.390288;0.487638;-0.468015;0.625177
29359;8.765004;2.682486;1.460968;0.780221;0.589700;1.648384;-0.767578;-0.295898;0.136475;0.380751;0.480608;-0.468706;0.635892
29360;8.671112;2.526733;1.207580;0.565520;0.655598;1.629333;-0.780029;-0.273682;0.137695;0.372339;0.472507;-0.470130;0.645816
29361;8.513644;2.511491;1.257093;0.434788;0.524174;1.618251;-0.794922;-0.258545;0.138184;0.363903;0.464648;-0.472513;0.654529
29362;8.143962;2.700267;1.491979;0.363668;0.232364;1.587238;-0.804199;-0.230713;0.134521;0.354690;0.458196;-0.475950;0.661606
29363;8.113437;3.065747;1.875053;0.272572;-0.139887;1.497231;-0.804688;-0.214355;0.135742;0.344783;0.453807;-0.480558;0.666519
29364;8.747991;3.375737;2.395717;0.108754;-0.481411;1.360177;-0.805176;-0.204102;0.144531;0.334838;0.451327;-0.486462;0.668986
29365;9.990054;3.600160;2.930000;-0.153827;-0.711591;1.180117;-0.804932;-0.180420;0.156982;0.325905;0.450068;-0.493721;0.668928
29366;11.574141;3.630753;3.391284;-0.513968;-0.779733;0.981537;-0.808838;-0.177246;0.157959;0.319109;0.448973;-0.502357;0.666506
29367;12.968055;3.476193;3.559522;-0.913240;-0.655314;0.769031;-0.807129;-0.156738;0.162354;0.315470;0.446961;-0.512013;0.662229
29368;14.054306;2.890860;3.107047;-1.176904;-0.385093;0.477510;-0.808838;-0.162354;0.173584;0.315537;0.443958;-0.521257;0.656985
29369;15.313358;1.919754;2.487059;-1.169585;0.008734;0.124124;-0.807129;-0.162598;0.160400;0.319191;0.440308;-0.528053;0.652231
29370;16.277947;1.118975;2.082540;-0.946894;0.328079;-0.245713;-0.803467;-0.164795;0.150146;0.325420;0.437109;-0.531383;0.648591
29371;16.858700;0.731898;2.227180;-0.567459;0.360535;-0.587664;-0.800781;-0.170898;0.149902;0.332241;0.436252;-0.531288;0.645781
29372;16.320620;0.924806;2.712014;-0.139755;0.261826;-0.882138;-0.793457;-0.183350;0.153320;0.338638;0.438393;-0.528058;0.643655
29373;13.583258;1.886040;2.888728;0.150622;0.185812;-1.209270;-0.795654;-0.205566;0.151367;0.345369;0.443167;-0.522240;0.641552
29374;11.043092;2.346852;1.990040;0.339140;0.237079;-1.663981;-0.787598;-0.225586;0.148438;0.354006;0.450121;-0.513501;0.639052
29375;10.035952;2.214291;1.206992;0.618731;0.428813;-2.273600;-0.768799;-0.252197;0.143066;0.365557;0.459353;-0.500262;0.636476
29376;10.587363;2.143620;1.508325;0.780237;0.594691;-2.933991;-0.764160;-0.286377;0.149414;0.380490;0.470705;-0.482863;0.632857
29377;11.714853;2.225822;2.247001;0.631739;0.742612;-3.442590;-0.737305;-0.321045;0.147217;0.398987;0.482485;-0.463404;0.627116
29378;13.462271;1.661960;2.551238;0.216718;0.868182;-3.756285;-0.709961;-0.363525;0.137939;0.420894;0.492973;-0.443984;0.618631
29379;15.618277;0.728660;2.482486;-0.210016;1.092679;-3.870724;-0.695312;-0.403076;0.123535;0.445520;0.500693;-0.425022;0.608421
29380;16.748627;-0.002556;2.376048;-0.542513;1.415577;-3.755070;-0.664551;-0.434814;0.097412;0.471585;0.504560;-0.406543;0.598121
29381;16.338624;-0.285851;1.962500;-0.779905;1.701008;-3.475295;-0.631104;-0.479248;0.077637;0.497697;0.504558;-0.388849;0.588655
29382;14.820784;-0.508990;1.251613;-0.876015;1.849796;-3.147659;-0.606445;-0.510986;0.046631;0.522575;0.501841;-0.371986;0.580257
29383;12.822259;-0.642335;0.404196;-0.755868;1.837090;-2.886486;-0.576904;-0.532959;0.023438;0.545168;0.498433;-0.355351;0.572785
29384;10.940126;-0.631183;-0.186533;-0.444548;1.650661;-2.748344;-0.550293;-0.561035;0.011475;0.564825;0.496522;-0.338373;0.565635
29385;9.374599;-0.418728;-0.372632;-0.089582;1.315893;-2.725878;-0.528564;-0.578369;0.003906;0.581576;0.497453;-0.321164;0.557820
29386;8.468605;-0.097049;-0.186908;0.197990;0.952597;-2.796772;-0.498291;-0.599121;-0.011475;0.596129;0.501343;-0.303890;0.548576
29387;8.012809;0.216314;0.035892;0.328949;0.670328;-2.879729;-0.470703;-0.623291;0.000244;0.609434;0.507075;-0.286891;0.537735
29388;7.815904;0.282619;0.217379;0.308767;0.469938;-2.915262;-0.434570;-0.647949;-0.006104;0.622130;0.513373;-0.270679;0.525486
29389;7.808139;0.255217;0.346894;0.196476;0.355423;-2.842755;-0.399414;-0.660156;-0.008789;0.634361;0.519120;-0.255706;0.512557
29390;7.668682;0.430194;0.786315;-0.022986;0.368128;-2.671018;-0.361328;-0.670654;-0.003906;0.646493;0.523004;-0.242213;0.499846
29391;7.476242;0.526082;1.034457;-0.360356;0.492011;-2.449729;-0.345703;-0.683838;-0.007080;0.659116;0.523859;-0.230311;0.487949
29392;7.270325;0.518238;1.165951;-0.723086;0.649530;-2.261049;-0.319824;-0.699219;-0.031494;0.672573;0.521490;-0.219747;0.476870
29393;7.091080;0.091721;1.038118;-1.036049;0.750027;-2.074621;-0.283936;-0.700439;-0.043213;0.686552;0.516407;-0.210585;0.466503
29394;7.124994;-0.336927;1.000144;-1.187274;0.742298;-1.859316;-0.270752;-0.704590;-0.064453;0.700059;0.509905;-0.202904;0.456886
29395;7.465189;-0.681362;1.038715;-1.212785;0.701856;-1.571349;-0.243896;-0.711670;-0.083984;0.712269;0.502745;-0.196714;0.448579
29396;7.907243;-0.948380;1.018486;-1.137761;0.695928;-1.234288;-0.228516;-0.717773;-0.098145;0.722703;0.495364;-0.191644;0.442253
29397;8.481855;-1.346971;0.867168;-0.965424;0.725480;-0.878495;-0.220459;-0.708496;-0.114502;0.731022;0.488246;-0.187199;0.438383
29398;9.304979;-1.684818;0.768650;-0.693652;0.736641;-0.531916;-0.215820;-0.709717;-0.125732;0.736894;0.482142;-0.183087;0.437041
29399;10.174208;-1.826632;0.809820;-0.389113;0.684146;-0.176118;-0.204834;-0.713135;-0.127930;0.740115;0.477523;-0.179615;0.438109
29400;10.708838;-1.777559;0.819219;-0.124392;0.527020;0.212957;-0.206055;-0.711182;-0.130859;0.740600;0.474511;-0.177696;0.441333
29401;10.665733;-1.455557;0.866547;0.089915;0.238354;0.593730;-0.217041;-0.703125;-0.139404;0.738387;0.473307;-0.178283;0.446071
29402;10.239532;-0.885663;1.302664;0.194127;-0.198592;0.946842;-0.223877;-0.699707;-0.132324;0.733764;0.473820;-0.182565;0.451392
29403;10.571966;-0.632627;1.754550;0.136303;-0.746768;1.230776;-0.246094;-0.703125;-0.119629;0.727387;0.475558;-0.191527;0.456147
29404;12.487926;-1.324235;2.004583;0.082373;-1.187570;1.488983;-0.269043;-0.688965;-0.112305;0.719391;0.478137;-0.204359;0.460543
29405;13.743046;-1.540369;2.105050;0.117208;-1.383609;1.798981;-0.291504;-0.690430;-0.102783;0.709509;0.480999;-0.219415;0.465934
29406;13.861320;-1.243736;2.178418;0.172510;-1.348886;2.149102;-0.324463;-0.684570;-0.109131;0.697819;0.483215;-0.235375;0.473446
29407;11.788580;-0.242079;2.250199;0.208688;-1.201240;2.520651;-0.352051;-0.670166;-0.096436;0.684456;0.484085;-0.251723;0.483547
29408;10.148654;0.785612;2.256976;0.101784;-1.269221;2.792900;-0.397461;-0.645020;-0.083740;0.669870;0.483754;-0.269843;0.494410
29409;9.388674;1.282431;2.586830;-0.104388;-1.557208;2.970729;-0.431396;-0.629395;-0.079590;0.654250;0.482706;-0.290945;0.504284
29410;9.168376;2.151351;3.429396;-0.410675;-2.019602;3.084873;-0.463867;-0.613281;-0.064941;0.637690;0.481229;-0.316062;0.511737
29411;9.546941;2.993893;4.746933;-0.947851;-2.459185;3.076386;-0.495117;-0.584229;-0.056885;0.621491;0.478284;-0.345437;0.515429
29412;10.525696;3.171403;5.560712;-1.698816;-2.719166;2.958188;-0.529297;-0.560303;-0.059326;0.607274;0.472314;-0.378481;0.514674
29413;11.904379;2.553543;5.470006;-2.398925;-2.613665;2.734420;-0.560303;-0.533691;-0.048584;0.596277;0.462408;-0.412593;0.510293
29414;12.988365;1.558457;4.674999;-2.780562;-2.077377;2.478389;-0.587891;-0.508057;-0.059814;0.588887;0.448587;-0.444123;0.504714
29415;13.022742;0.390935;3.652986;-2.710223;-1.297143;2.205938;-0.607666;-0.484375;-0.071289;0.584608;0.432334;-0.470012;0.500410
29416;12.289289;-0.585178;2.662165;-2.186443;-0.624193;1.924476;-0.624268;-0.455811;-0.088623;0.581785;0.416583;-0.489051;0.498812
29417;11.299424;-1.270623;1.941272;-1.317472;-0.239494;1.681970;-0.637695;-0.441650;-0.088867;0.578248;0.404236;-0.501541;0.500679
29418;10.357468;-1.522827;1.369856;-0.208221;-0.160738;1.481001;-0.656250;-0.416748;-0.093262;0.572002;0.397646;-0.508225;0.506359
29419;9.647363;-1.198476;1.259822;0.910137;-0.309177;1.304814;-0.666016;-0.412598;-0.075684;0.562066;0.397690;-0.510228;0.515357
29420;9.311178;-0.542527;1.310660;1.782917;-0.543800;1.157355;-0.672363;-0.406250;-0.059814;0.548728;0.403351;-0.508960;0.526464
29421;9.154977;0.082935;1.427830;2.358462;-0.739006;1.066756;-0.685059;-0.390625;-0.037598;0.532796;0.412714;-0.505543;0.538722
29422;9.089323;0.676612;1.529351;2.669234;-0.880779;1.056851;-0.686035;-0.374268;-0.006592;0.514943;0.423900;-0.501039;0.551454
29423;9.086792;1.220410;1.560575;2.771336;-0.940120;1.128332;-0.705322;-0.372314;0.026855;0.495817;0.435221;-0.496244;0.564349
29424;9.088944;1.739416;1.655932;2.697964;-0.886030;1.227097;-0.716553;-0.355957;0.052979;0.476383;0.445283;-0.491592;0.577166
29425;9.025350;2.096197;1.749862;2.487689;-0.732083;1.295776;-0.715332;-0.344238;0.075195;0.457734;0.453211;-0.487285;0.589605
29426;8.899369;2.409984;1.788162;2.177589;-0.552177;1.334749;-0.719482;-0.319824;0.096191;0.440555;0.458675;-0.483701;0.601301
29427;8.901236;2.628824;1.894410;1.779346;-0.426657;1.363614;-0.739258;-0.305420;0.108887;0.425076;0.461742;-0.481556;0.611726
29428;8.910922;2.772893;2.029270;1.354359;-0.385421;1.390497;-0.738281;-0.291260;0.125244;0.411129;0.462840;-0.481378;0.620506
29429;8.910065;2.808667;2.027347;0.952357;-0.388326;1.421641;-0.742920;-0.263672;0.133301;0.398462;0.462341;-0.483286;0.627617
29430;8.751549;2.961492;2.062610;0.631331;-0.436970;1.447991;-0.754395;-0.249512;0.148438;0.386620;0.460834;-0.487035;0.633209
29431;8.824812;3.319498;2.331185;0.342308;-0.545363;1.452403;-0.764404;-0.232910;0.155518;0.375358;0.458870;-0.492581;0.637110
29432;9.581125;3.662335;2.736342;0.013384;-0.690352;1.410573;-0.769043;-0.209961;0.157227;0.364918;0.456740;-0.500075;0.638864
29433;10.703006;3.997010;3.402209;-0.377640;-0.799005;1.309958;-0.774658;-0.197510;0.164062;0.355991;0.454344;-0.509506;0.638158
29434;11.757734;4.256102;4.010608;-0.890367;-0.827901;1.154069;-0.764648;-0.183594;0.167236;0.349650;0.451162;-0.521056;0.634586
29435;12.639347;4.070319;4.050769;-1.402051;-0.738429;0.922459;-0.766602;-0.179199;0.174561;0.346776;0.446930;-0.534058;0.628317
29436;13.534272;3.402395;3.744258;-1.692965;-0.529938;0.595045;-0.767822;-0.174805;0.169434;0.347550;0.442120;-0.546625;0.620435
29437;14.814641;2.486360;3.413903;-1.677691;-0.246954;0.155996;-0.772217;-0.176514;0.169922;0.351758;0.437795;-0.556546;0.612257
29438;16.823065;1.706433;3.801521;-1.383946;0.067391;-0.377103;-0.778809;-0.184082;0.165771;0.359016;0.435130;-0.561996;0.604922
29439;18.236634;1.551044;4.609147;-1.034749;0.535562;-0.974796;-0.769775;-0.185791;0.150635;0.370164;0.433885;-0.562024;0.599042
29440;17.304165;1.437033;4.481900;-0.722923;1.334702;-1.626420;-0.763428;-0.217773;0.137695;0.387089;0.432560;-0.555522;0.595357
29441;14.722067;1.084684;3.038452;-0.231091;2.179039;-2.262842;-0.755371;-0.240234;0.110596;0.409113;0.431361;-0.541266;0.594631
29442;12.234813;0.548788;1.341657;0.545080;2.757528;-2.807678;-0.742676;-0.272461;0.080078;0.433288;0.432015;-0.518743;0.597102
29443;10.942226;0.122140;0.584309;1.442154;2.864547;-3.278691;-0.732422;-0.309326;0.057617;0.456484;0.436858;-0.489010;0.601370
29444;10.282472;0.409250;1.121694;2.096872;2.455016;-3.644096;-0.711914;-0.349854;0.040039;0.476749;0.447054;-0.455462;0.604489
29445;10.660467;1.035595;2.130127;2.247242;1.764573;-3.806283;-0.676025;-0.391113;0.040283;0.493883;0.461220;-0.422560;0.603986
29446;12.119913;1.254977;2.775492;1.903441;1.129934;-3.756026;-0.658936;-0.430664;0.031982;0.509136;0.476321;-0.393577;0.599163
29447;13.494487;1.310298;3.069760;1.324491;0.691603;-3.504372;-0.631104;-0.464355;0.043701;0.523401;0.489772;-0.369881;0.591069
29448;14.315954;1.448953;3.276615;0.581130;0.460820;-3.094167;-0.605713;-0.489746;0.042480;0.537520;0.499434;-0.352207;0.581024
29449;14.286143;1.552491;3.084452;-0.197062;0.478872;-2.658755;-0.579834;-0.525635;0.027588;0.552496;0.503939;-0.339818;0.570365
29450;13.458166;1.405598;2.507011;-0.844746;0.658591;-2.344007;-0.566406;-0.538086;0.017822;0.568937;0.503469;-0.330837;0.559800
29451;12.394249;1.053248;1.780079;-1.231636;0.876877;-2.193607;-0.545166;-0.554199;0.002197;0.586628;0.499489;-0.323100;0.549531
29452;11.234733;0.808565;1.124151;-1.341319;1.078737;-2.136854;-0.519531;-0.568604;-0.021729;0.604759;0.493639;-0.314953;0.539807
29453;10.059810;0.593054;0.705909;-1.266236;1.179023;-2.138749;-0.500000;-0.590088;-0.050537;0.622534;0.487459;-0.305792;0.530402
29454;8.928563;0.579853;0.500678;-1.058434;1.173988;-2.192749;-0.476562;-0.603516;-0.073486;0.639367;0.482264;-0.295365;0.520952
29455;7.933495;0.561435;0.462962;-0.846659;1.027319;-2.280017;-0.442383;-0.619141;-0.081299;0.655047;0.478807;-0.284307;0.510711
29456;7.404600;0.583838;0.614484;-0.650254;0.813900;-2.376158;-0.425293;-0.635986;-0.093262;0.669534;0.477329;-0.273063;0.499317
29457;7.204297;0.510667;0.887536;-0.503213;0.575577;-2.387836;-0.400146;-0.646973;-0.110840;0.682638;0.477473;-0.262370;0.487019
29458;7.244626;0.436070;1.134282;-0.407309;0.394274;-2.285134;-0.371826;-0.663818;-0.110107;0.694265;0.478475;-0.252623;0.474594
29459;7.391957;0.405776;1.329922;-0.362848;0.301465;-2.121198;-0.346680;-0.674072;-0.125244;0.704622;0.479583;-0.243805;0.462673
29460;7.502414;0.468904;1.449913;-0.390022;0.303504;-1.926416;-0.329346;-0.689941;-0.125488;0.714128;0.479983;-0.235790;0.451709
29461;7.652701;0.474823;1.497342;-0.491986;0.381651;-1.704214;-0.307617;-0.690674;-0.141846;0.723177;0.478922;-0.228527;0.442068
29462;7.643643;0.367363;1.473372;-0.616230;0.470219;-1.471738;-0.282959;-0.689941;-0.142578;0.731880;0.476242;-0.222073;0.433853
29463;7.712983;0.121004;1.424336;-0.685332;0.522691;-1.234757;-0.280762;-0.696533;-0.163574;0.739969;0.472427;-0.216455;0.427090
29464;7.686321;-0.090954;1.278346;-0.657407;0.563848;-0.987104;-0.254395;-0.702393;-0.170654;0.747035;0.468125;-0.211436;0.422010
29465;7.755873;-0.262319;1.073487;-0.543809;0.585718;-0.752892;-0.248047;-0.698242;-0.185059;0.752796;0.463992;-0.206778;0.418632
29466;8.035952;-0.474148;0.830179;-0.366268;0.598281;-0.530874;-0.247314;-0.702637;-0.178223;0.757063;0.460514;-0.202274;0.416974
29467;8.382846;-0.687173;0.725436;-0.135878;0.555130;-0.310177;-0.234131;-0.704346;-0.185059;0.759573;0.458249;-0.198088;0.416916
29468;8.700616;-0.685928;0.764376;0.074820;0.408552;-0.066350;-0.232178;-0.706299;-0.184570;0.760170;0.457414;-0.195034;0.418182
29469;9.033851;-0.540451;0.866003;0.225051;0.187845;0.204210;-0.228271;-0.700928;-0.187988;0.758883;0.457855;-0.193892;0.420562
29470;9.304985;-0.261695;1.087049;0.274599;-0.071580;0.486473;-0.237793;-0.701904;-0.191162;0.755983;0.459054;-0.195300;0.423811
29471;10.056576;-0.327502;1.234871;0.220763;-0.339524;0.719035;-0.248047;-0.697998;-0.168213;0.752003;0.460466;-0.199479;0.427400
29472;11.971308;-1.006662;1.220366;0.202000;-0.520543;0.958984;-0.266113;-0.703369;-0.169434;0.746885;0.461975;-0.205775;0.431739
29473;13.534767;-1.476349;1.187724;0.243981;-0.627126;1.304642;-0.287598;-0.699463;-0.168457;0.740087;0.463479;-0.213902;0.437841
29474;13.758205;-1.116821;1.284201;0.271247;-0.705995;1.764606;-0.304688;-0.687744;-0.160156;0.731208;0.464522;-0.224162;0.446436
29475;11.426135;0.352268;1.697167;0.076926;-0.934274;2.233168;-0.338867;-0.680176;-0.158936;0.720663;0.464198;-0.238288;0.456491
29476;9.136781;1.663277;2.015350;-0.339151;-1.369146;2.514252;-0.367432;-0.663818;-0.157471;0.709435;0.462237;-0.257585;0.465498
29477;7.933571;2.174354;2.264350;-0.842395;-1.884622;2.600438;-0.416260;-0.643555;-0.147705;0.698222;0.458802;-0.282043;0.471634
29478;7.999182;1.986739;2.441366;-1.193870;-2.373127;2.513414;-0.449707;-0.635742;-0.146729;0.686950;0.455053;-0.310152;0.474165
29479;8.576574;1.853039;3.013403;-1.405200;-2.755991;2.355932;-0.487793;-0.606201;-0.141113;0.675426;0.451559;-0.340381;0.473323
29480;10.024972;1.693676;3.675879;-1.631571;-3.047344;2.159697;-0.510498;-0.581299;-0.135986;0.663951;0.447995;-0.372028;0.469112
29481;12.167251;1.061620;4.079587;-1.910759;-3.045613;1.950418;-0.541992;-0.555176;-0.130615;0.653566;0.443004;-0.403541;0.462336
29482;13.919192;0.310249;4.046887;-2.090066;-2.622528;1.810164;-0.567383;-0.538818;-0.132812;0.645090;0.435392;-0.432482;0.455249
29483;14.702569;-0.590628;3.500272;-1.989363;-1.826229;1.741137;-0.588135;-0.512695;-0.134033;0.638817;0.425169;-0.456137;0.450647
29484;14.330011;-1.400085;2.591923;-1.510349;-0.933195;1.738267;-0.607422;-0.499268;-0.135498;0.633881;0.413904;-0.472968;0.450753
29485;12.790061;-1.784323;1.834753;-0.745470;-0.302082;1.761439;-0.633789;-0.470459;-0.139893;0.628485;0.404070;-0.483511;0.456016
29486;10.857073;-1.466656;1.719150;0.181219;-0.167486;1.748528;-0.643555;-0.454590;-0.130859;0.620407;0.398529;-0.489669;0.465289
29487;9.248704;-0.809683;1.895992;1.040775;-0.466286;1.694871;-0.659180;-0.453125;-0.119385;0.608304;0.398703;-0.493737;0.476682
29488;9.686342;-0.711650;3.158370;1.700439;-0.788151;1.646824;-0.675781;-0.428467;-0.103760;0.592655;0.403548;-0.496477;0.489305
29489;9.115639;-2.627049;2.413398;2.998979;-0.632248;1.714089;-0.682129;-0.417236;-0.068848;0.572630;0.413626;-0.493056;0.507843
29490;8.737068;2.296384;2.653888;4.151333;-0.854133;1.342172;-0.700195;-0.401367;-0.033691;0.548658;0.431198;-0.483987;0.528015
29491;9.321284;1.605878;1.679621;3.966088;-1.366051;1.352821;-0.710449;-0.396240;0.014648;0.522496;0.449542;-0.477447;0.544935
29492;9.781104;4.663913;3.587287;2.847374;-1.403955;1.303826;-0.725586;-0.384033;0.054932;0.500029;0.462895;-0.475446;0.556462
29493;10.344370;2.310333;2.752241;1.500786;-1.181623;1.572569;-0.731201;-0.365479;0.075195;0.482082;0.468254;-0.479494;0.564287
29494;11.413374;2.115334;2.647929;1.369983;-0.607081;1.874848;-0.736084;-0.337891;0.086914;0.465323;0.468984;-0.482825;0.574812
29495;10.461603;3.393804;2.899418;0.805162;-0.243480;2.122811;-0.751709;-0.318848;0.096924;0.450871;0.464604;-0.488229;0.585227
29496;10.253140;3.266720;2.722818;0.086485;0.008705;2.136393;-0.762451;-0.288574;0.107178;0.440012;0.456082;-0.496069;0.593544
29497;9.823787;3.241431;2.540124;-0.355602;0.199137;2.040986;-0.777344;-0.269531;0.085449;0.431960;0.445251;-0.504874;0.600220
29498;9.223240;3.134341;2.320343;-0.728528;0.193661;1.905920;-0.784424;-0.244629;0.087646;0.425820;0.433543;-0.514906;0.604640
29499;8.807194;2.855274;2.167226;-0.884887;0.004644;1.747728;-0.797119;-0.225342;0.086914;0.420116;0.422793;-0.525674;0.606972
29500;8.584647;2.702669;2.178499;-0.845554;-0.288481;1.586790;-0.800781;-0.204102;0.079590;0.413703;0.414267;-0.536564;0.607727
29501;8.774619;2.722068;2.514965;-0.677235;-0.638314;1.376818;-0.803467;-0.181641;0.089355;0.406125;0.408946;-0.546964;0.607171
29502;9.732348;2.906044;3.140775;-0.563493;-0.943876;1.112062;-0.818359;-0.166260;0.104980;0.398037;0.406692;-0.556813;0.605085
29503;11.199580;3.271999;3.983000;-0.635719;-1.093711;0.821816;-0.818115;-0.155273;0.116699;0.390902;0.406237;-0.566441;0.601092
29504;12.508371;3.410254;4.431277;-0.900473;-1.010350;0.542502;-0.809570;-0.148682;0.124023;0.386404;0.405763;-0.576082;0.595129
29505;13.157064;3.029515;4.214680;-1.195714;-0.605634;0.250232;-0.812500;-0.153320;0.123291;0.386251;0.403682;-0.584806;0.588093
29506;13.731244;2.052728;3.296547;-1.229520;-0.001166;-0.139502;-0.814453;-0.151611;0.119629;0.391030;0.400387;-0.590360;0.581602
29507;14.897130;1.013578;2.877475;-0.951679;0.541493;-0.562892;-0.809570;-0.162109;0.110596;0.399571;0.397412;-0.591316;0.576847
29508;16.341602;0.472866;3.108763;-0.565023;0.886852;-0.910710;-0.819824;-0.175537;0.101562;0.410164;0.395734;-0.588033;0.573914
29509;16.689733;0.295095;3.386812;-0.249242;1.080110;-1.146242;-0.803955;-0.189453;0.079834;0.421731;0.395308;-0.581704;0.572272
29510;15.023673;0.375151;2.780219;0.068933;1.239467;-1.375086;-0.804932;-0.203613;0.063721;0.434033;0.396270;-0.572414;0.571775
29511;12.817597;0.604255;1.897856;0.472578;1.387594;-1.684759;-0.795166;-0.230957;0.052734;0.447061;0.399352;-0.559470;0.572405
29512;10.680113;1.030597;1.222261;0.875136;1.462848;-2.063818;-0.799316;-0.258301;0.038818;0.460723;0.405176;-0.542823;0.573507
29513;9.311612;1.193308;0.919189;1.191327;1.467577;-2.526927;-0.783936;-0.294922;0.021484;0.475278;0.414047;-0.522758;0.573933
