// Start Time: Unknown
// Update Rate: 60.0Hz
// Filter Profile: human (46.1)
// Firmware Version: 4.4.0
PacketCounter;Acc_X;Acc_Y;Acc_Z;Gyr_X;Gyr_Y;Gyr_Z;Mag_X;Mag_Y;Mag_Z;Quat_q0;Quat_q1;Quat_q2;Quat_q3
28597;9.332290;1.581505;-2.445731;0.000239;0.009327;-0.000487;-0.497803;-0.279297;0.606201;-0.177807;-0.784301;0.099970;-0.585885
28598;9.328728;1.572545;-2.467678;-0.002251;0.008385;-0.001105;-0.497070;-0.276367;0.607666;-0.177835;-0.784258;0.099961;-0.585937
28599;9.369531;1.533992;-2.439453;-0.000344;0.009626;-0.001626;-0.503174;-0.280273;0.612549;-0.177849;-0.784214;0.099938;-0.585996
28600;9.360975;1.540309;-2.448031;-0.001809;0.008611;-0.002664;-0.500000;-0.277588;0.613770;-0.177880;-0.784171;0.099917;-0.586047
28601;9.345954;1.557732;-2.422966;-0.002536;0.010299;-0.003486;-0.497559;-0.268799;0.601807;-0.177921;-0.784120;0.099893;-0.586108
28602;9.356622;1.556332;-2.431692;-0.003935;0.007687;0.000143;-0.501953;-0.276123;0.608643;-0.177950;-0.784075;0.099903;-0.586156
28603;9.370799;1.535712;-2.433494;-0.010809;0.008953;-0.001183;-0.501465;-0.278564;0.607178;-0.178031;-0.784015;0.099937;-0.586206
28604;9.356875;1.528876;-2.445143;-0.003493;0.007913;-0.001415;-0.501709;-0.269531;0.609863;-0.178063;-0.783971;0.099937;-0.586256
28605;9.374433;1.544831;-2.470930;-0.003779;0.010688;-0.000781;-0.503418;-0.279053;0.615967;-0.178093;-0.783912;0.099941;-0.586325
28606;9.340337;1.569661;-2.445281;-0.002015;0.013316;-0.000984;-0.508057;-0.282715;0.604248;-0.178111;-0.783844;0.099933;-0.586412
28607;9.351177;1.568194;-2.453436;-0.000185;0.012625;-0.002549;-0.497314;-0.288086;0.601318;-0.178125;-0.783783;0.099907;-0.586493
28608;9.353599;1.545217;-2.424415;0.002229;0.011635;-0.002974;-0.497070;-0.279053;0.608154;-0.178122;-0.783733;0.099869;-0.586568
28609;9.390953;1.525794;-2.402761;-0.000924;0.010783;0.000248;-0.501221;-0.277588;0.606201;-0.178121;-0.783678;0.099871;-0.586641
28610;9.359445;1.530521;-2.434255;0.001206;0.011707;-0.002557;-0.497559;-0.280273;0.604980;-0.178117;-0.783622;0.099846;-0.586721
28611;9.370256;1.529126;-2.442493;0.010002;0.015210;-0.005367;-0.508789;-0.271484;0.607422;-0.178069;-0.783564;0.099757;-0.586828
28612;9.351832;1.565315;-2.424088;0.021560;0.013350;-0.004567;-0.500977;-0.280029;0.602295;-0.177932;-0.783532;0.099624;-0.586936
28613;9.343388;1.571262;-2.432564;0.030950;0.015687;-0.009252;-0.503662;-0.279541;0.608398;-0.177765;-0.783505;0.099411;-0.587058
28614;9.371892;1.557721;-2.420905;0.036382;0.017789;-0.009571;-0.506104;-0.279297;0.598877;-0.177561;-0.783478;0.099165;-0.587197
28615;9.341249;1.563024;-2.388524;0.034922;0.017632;-0.007598;-0.496826;-0.281494;0.607666;-0.177360;-0.783444;0.098944;-0.587340
28616;9.385236;1.532302;-2.400190;0.027671;0.016212;-0.005722;-0.504395;-0.280273;0.607666;-0.177199;-0.783409;0.098766;-0.587466
28617;9.364667;1.507382;-2.394345;0.021079;0.015564;-0.004676;-0.502197;-0.280029;0.609619;-0.177066;-0.783361;0.098634;-0.587593
28618;9.378994;1.486155;-2.395943;0.032876;0.013379;-0.006154;-0.495850;-0.281982;0.603760;-0.176857;-0.783342;0.098439;-0.587713
28619;9.360447;1.521957;-2.378182;0.040813;0.015553;-0.008865;-0.503906;-0.266846;0.611572;-0.176622;-0.783326;0.098190;-0.587847
28620;9.373316;1.581019;-2.374540;0.038415;0.015670;-0.011460;-0.510498;-0.275391;0.610596;-0.176376;-0.783310;0.097932;-0.587985
28621;9.371361;1.576244;-2.416819;0.032774;0.013014;-0.011873;-0.508057;-0.276611;0.608643;-0.176170;-0.783286;0.097709;-0.588115
28622;9.359111;1.517678;-2.417740;0.021401;0.011902;-0.008330;-0.499268;-0.273926;0.610840;-0.176033;-0.783249;0.097565;-0.588229
28623;9.364732;1.531250;-2.413372;0.014934;0.010741;-0.004585;-0.501221;-0.269531;0.611328;-0.175925;-0.783220;0.097466;-0.588317
28624;9.367449;1.565017;-2.352389;0.003840;0.006858;-0.001665;-0.511963;-0.267334;0.607666;-0.175857;-0.783194;0.097445;-0.588375
28625;9.418705;1.553304;-2.318059;-0.008561;0.004956;-0.000717;-0.503906;-0.269531;0.607910;-0.175846;-0.783138;0.097511;-0.588443
28626;9.402829;1.514228;-2.326291;-0.011406;0.003986;-0.004764;-0.510742;-0.274902;0.603027;-0.175898;-0.783091;0.097554;-0.588482
28627;9.391655;1.487759;-2.395099;-0.006250;0.007994;-0.007468;-0.507568;-0.271973;0.610596;-0.175943;-0.783008;0.097575;-0.588576
28628;9.363302;1.529948;-2.451588;0.003946;0.006182;-0.009660;-0.497070;-0.267578;0.607666;-0.175900;-0.782968;0.097510;-0.588653
28629;9.358424;1.574910;-2.421290;0.004756;0.005561;-0.010803;-0.499268;-0.275146;0.606201;-0.175881;-0.782962;0.097417;-0.588681
28630;9.362329;1.614022;-2.380990;-0.004208;0.003458;-0.007681;-0.508057;-0.276123;0.605225;-0.175930;-0.782939;0.097410;-0.588699
28631;9.358554;1.606018;-2.403615;-0.010014;0.003064;-0.004768;-0.509033;-0.274658;0.606934;-0.175989;-0.782883;0.097465;-0.588747
28632;9.365613;1.568814;-2.388681;-0.010157;0.004451;-0.004456;-0.498291;-0.270752;0.616211;-0.176036;-0.782823;0.097511;-0.588805
28633;9.361721;1.532324;-2.427311;-0.000164;0.006480;-0.007994;-0.511475;-0.279541;0.606934;-0.176011;-0.782823;0.097422;-0.588827
28634;9.342832;1.569221;-2.409933;0.007227;0.008245;-0.004156;-0.500732;-0.279785;0.609131;-0.175963;-0.782760;0.097391;-0.588931
28635;9.348803;1.639670;-2.373116;0.003115;0.008542;-0.002492;-0.506592;-0.273438;0.603760;-0.175962;-0.782726;0.097362;-0.588980
28636;9.364570;1.622974;-2.395336;-0.010036;0.004802;0.001253;-0.511963;-0.276855;0.607910;-0.176006;-0.782667;0.097441;-0.589032
28637;9.371621;1.556499;-2.396516;-0.015612;0.004082;0.001878;-0.499756;-0.271973;0.604248;-0.176069;-0.782592;0.097547;-0.589096
28638;9.373823;1.533475;-2.368018;-0.014291;0.006485;0.003229;-0.502197;-0.278320;0.609863;-0.176145;-0.782547;0.097634;-0.589119
28639;9.361753;1.558601;-2.384038;-0.009672;0.003959;0.001667;-0.503662;-0.275635;0.606201;-0.176197;-0.782519;0.097689;-0.589131
28640;9.351540;1.560608;-2.372962;-0.012306;0.004403;0.001357;-0.503418;-0.274170;0.604980;-0.176264;-0.782475;0.097764;-0.589157
28641;9.371016;1.553221;-2.371873;-0.014723;0.005392;0.001773;-0.504883;-0.279053;0.602783;-0.176342;-0.782422;0.097853;-0.589189
28642;9.372589;1.529512;-2.407351;-0.013899;0.003903;-0.002383;-0.503662;-0.275879;0.608154;-0.176479;-0.782362;0.097933;-0.589214
28643;9.362123;1.503473;-2.412595;-0.005702;0.005048;0.000317;-0.509033;-0.271973;0.604980;-0.176494;-0.782335;0.097960;-0.589241
28644;9.362487;1.532243;-2.395380;0.003853;0.005993;-0.004668;-0.513428;-0.265381;0.607910;-0.176435;-0.782295;0.097919;-0.589319
28645;9.355769;1.599709;-2.392164;0.003941;0.007056;-0.006640;-0.505859;-0.274170;0.613281;-0.176293;-0.782252;0.097842;-0.589431
28646;9.352345;1.619694;-2.398289;0.000335;0.005123;-0.004876;-0.502686;-0.274658;0.604736;-0.176236;-0.782256;0.097776;-0.589454
28647;9.387714;1.596910;-2.356981;-0.002748;0.005344;-0.003630;-0.506348;-0.286133;0.603271;-0.176270;-0.782236;0.097769;-0.589472
28648;9.369676;1.524294;-2.425100;0.005493;0.009136;-0.007573;-0.500244;-0.273926;0.610596;-0.176388;-0.782173;0.097727;-0.589527
28649;9.338190;1.557923;-2.441283;0.013774;0.006096;-0.009236;-0.509521;-0.276855;0.610840;-0.176297;-0.782219;0.097565;-0.589520
28650;9.331631;1.569384;-2.406834;0.015153;0.011299;-0.003831;-0.505859;-0.270996;0.603516;-0.176177;-0.782189;0.097446;-0.589615
28651;9.377581;1.599820;-2.406210;0.004437;0.010945;-0.001135;-0.506592;-0.270508;0.610107;-0.176115;-0.782138;0.097416;-0.589706
28652;9.374571;1.563399;-2.380434;-0.002384;0.009751;-0.000826;-0.497559;-0.272949;0.604980;-0.176039;-0.782113;0.097387;-0.589767
28653;9.383732;1.557692;-2.368826;-0.005991;0.007818;0.000936;-0.513428;-0.274658;0.597656;-0.176070;-0.782111;0.097403;-0.589758
28654;9.384124;1.557483;-2.367412;-0.007701;0.007993;0.005194;-0.502930;-0.275146;0.603271;-0.176123;-0.781974;0.097535;-0.589902
28655;9.402323;1.573599;-2.329516;-0.001981;0.007328;0.004262;-0.503174;-0.280029;0.610107;-0.176132;-0.781939;0.097577;-0.589938
28656;9.400966;1.540774;-2.324093;-0.000701;0.011312;0.000942;-0.502441;-0.279541;0.610107;-0.176162;-0.781918;0.097558;-0.589961
28657;9.378280;1.511011;-2.362129;0.001156;0.009750;-0.003628;-0.511230;-0.278564;0.613770;-0.176197;-0.781915;0.097500;-0.589964
28658;9.362786;1.500024;-2.353820;0.002689;0.007449;-0.003940;-0.514404;-0.275635;0.606201;-0.176153;-0.781896;0.097432;-0.590013
28659;9.368198;1.569236;-2.380992;0.002510;0.005323;0.000005;-0.500732;-0.274902;0.603271;-0.176099;-0.781826;0.097436;-0.590121
28660;9.382611;1.605168;-2.350699;-0.007831;0.003260;0.000098;-0.504639;-0.271240;0.606201;-0.176165;-0.781821;0.097481;-0.590101
28661;9.375646;1.559850;-2.349114;-0.013984;0.002833;-0.000428;-0.500488;-0.278809;0.604248;-0.176186;-0.781807;0.097537;-0.590104
28662;9.379364;1.569592;-2.325149;-0.016202;-0.000014;0.001333;-0.499512;-0.273682;0.602783;-0.176345;-0.781806;0.097635;-0.590041
28663;9.405573;1.579625;-2.341945;-0.017536;-0.001551;0.002992;-0.505127;-0.279297;0.607178;-0.176440;-0.781815;0.097748;-0.589983
28664;9.365309;1.562740;-2.337842;-0.012537;-0.000532;0.001232;-0.502197;-0.275146;0.607178;-0.176541;-0.781809;0.097821;-0.589948
28665;9.380912;1.546116;-2.360981;-0.005935;0.000118;0.000201;-0.502441;-0.278320;0.603760;-0.176549;-0.781837;0.097840;-0.589906
28666;9.350997;1.583082;-2.398288;0.006025;0.000947;-0.002173;-0.507080;-0.269775;0.605957;-0.176566;-0.781851;0.097808;-0.589887
28667;9.352877;1.615221;-2.402046;0.010988;0.003699;0.002093;-0.510742;-0.275635;0.603027;-0.176367;-0.781851;0.097756;-0.589955
28668;9.349791;1.606194;-2.361344;0.005324;0.001912;0.004682;-0.501465;-0.267822;0.612305;-0.176303;-0.781796;0.097786;-0.590043
28669;9.414857;1.572438;-2.330755;0.003502;0.001736;0.003225;-0.506592;-0.276855;0.607422;-0.176081;-0.781883;0.097726;-0.590003
28670;9.386997;1.529634;-2.309668;0.003646;0.000351;0.002912;-0.502197;-0.280518;0.607666;-0.176037;-0.781891;0.097722;-0.590006
28671;9.401011;1.508085;-2.312872;0.010032;0.000454;0.001154;-0.506348;-0.277344;0.606445;-0.176031;-0.781937;0.097669;-0.589957
28672;9.411535;1.505769;-2.323002;0.018857;0.003949;-0.001638;-0.509033;-0.277588;0.606201;-0.175932;-0.781943;0.097564;-0.589995
28673;9.413352;1.538316;-2.326777;0.018172;0.003894;-0.008494;-0.504150;-0.273926;0.598877;-0.175873;-0.781932;0.097426;-0.590051
28674;9.399056;1.503088;-2.356183;0.009872;0.002552;-0.006220;-0.507324;-0.269775;0.602539;-0.175876;-0.781901;0.097374;-0.590100
28675;9.351633;1.525032;-2.366419;-0.000994;-0.001664;-0.005610;-0.508057;-0.273438;0.600342;-0.175827;-0.781883;0.097360;-0.590139
28676;9.333683;1.565926;-2.371810;-0.019425;-0.020111;0.001008;-0.513184;-0.278320;0.603516;-0.175933;-0.781897;0.097531;-0.590062
28677;9.392458;1.576081;-2.378178;-0.035712;-0.021192;0.004313;-0.500000;-0.280029;0.611084;-0.176169;-0.781864;0.097808;-0.589988
28678;9.396975;1.505986;-2.362622;-0.036730;-0.021125;0.004725;-0.497559;-0.270996;0.609863;-0.176407;-0.781985;0.098030;-0.589720
28679;9.371930;1.529673;-2.351406;-0.040796;-0.017325;0.002750;-0.507568;-0.276123;0.611816;-0.176529;-0.782107;0.098231;-0.589488
28680;9.397522;1.540575;-2.370058;-0.045255;-0.016200;0.003992;-0.509766;-0.277588;0.597656;-0.176714;-0.782140;0.098480;-0.589347
28681;9.363446;1.513896;-2.400917;-0.055047;-0.016125;0.003566;-0.503174;-0.278320;0.605225;-0.177108;-0.782031;0.098867;-0.589309
28682;9.408286;1.517794;-2.419134;-0.054941;-0.015070;0.001589;-0.503174;-0.277100;0.602783;-0.177462;-0.782031;0.099179;-0.589151
28683;9.362138;1.489261;-2.419429;-0.036753;-0.012739;-0.002241;-0.503418;-0.270752;0.602783;-0.177704;-0.782033;0.099383;-0.589040
28684;9.362050;1.576133;-2.371313;-0.022162;-0.013201;-0.007326;-0.497803;-0.278076;0.611084;-0.177743;-0.782074;0.099461;-0.588961
28685;9.331409;1.643418;-2.393909;-0.022029;-0.018974;-0.007036;-0.506104;-0.280762;0.609619;-0.177852;-0.782238;0.099510;-0.588702
28686;9.369016;1.629843;-2.396308;-0.026358;-0.018377;-0.003090;-0.506836;-0.279297;0.600830;-0.178007;-0.782303;0.099638;-0.588547
28687;9.364526;1.622279;-2.421678;-0.024590;-0.015751;-0.003289;-0.494385;-0.285156;0.603760;-0.178204;-0.782284;0.099805;-0.588484
28688;9.316394;1.616614;-2.449514;-0.013233;-0.009358;-0.004404;-0.494141;-0.278320;0.596191;-0.178455;-0.782366;0.099875;-0.588287
28689;9.347193;1.612333;-2.481046;0.002859;-0.005999;-0.004389;-0.500488;-0.270264;0.607910;-0.178538;-0.782410;0.099884;-0.588203
28690;9.342189;1.600214;-2.421135;0.008795;-0.001722;-0.005201;-0.503662;-0.274414;0.602295;-0.178296;-0.782498;0.099761;-0.588180
28691;9.357667;1.612094;-2.428802;0.016107;-0.002744;-0.005414;-0.495605;-0.281250;0.603516;-0.178140;-0.782521;0.099659;-0.588214
28692;9.336468;1.587227;-2.425737;0.011776;-0.002147;-0.001464;-0.501465;-0.279297;0.605225;-0.178151;-0.782593;0.099611;-0.588122
28693;9.352087;1.598563;-2.433215;0.012295;0.000010;-0.001975;-0.509033;-0.280518;0.600586;-0.178089;-0.782624;0.099544;-0.588112
28694;9.387245;1.546381;-2.409616;0.016110;0.002498;-0.003005;-0.502197;-0.275879;0.600098;-0.178055;-0.782546;0.099494;-0.588234
28695;9.370121;1.558741;-2.366169;0.013685;-0.000904;-0.001979;-0.500977;-0.279053;0.604248;-0.177960;-0.782544;0.099438;-0.588274
28696;9.385922;1.598344;-2.357227;0.009727;-0.002007;-0.000633;-0.502686;-0.281494;0.600586;-0.177921;-0.782577;0.099402;-0.588249
28697;9.362855;1.596643;-2.381041;0.002112;-0.002597;0.000821;-0.501465;-0.277832;0.599365;-0.178007;-0.782549;0.099453;-0.588251
28698;9.329168;1.568512;-2.411152;0.007906;-0.002182;-0.002087;-0.505371;-0.279053;0.600586;-0.178003;-0.782540;0.099437;-0.588268
28699;9.330578;1.572718;-2.431966;0.009959;-0.002325;-0.002920;-0.489746;-0.282959;0.606445;-0.177991;-0.782509;0.099409;-0.588316
28700;9.341049;1.599415;-2.426057;0.010116;0.000674;-0.003844;-0.510498;-0.281494;0.604004;-0.178086;-0.782632;0.099361;-0.588132
28701;9.356649;1.611192;-2.433319;-0.001315;-0.002403;-0.001358;-0.510010;-0.283936;0.606201;-0.178140;-0.782563;0.099394;-0.588203
28702;9.354744;1.578967;-2.429974;-0.010476;-0.005079;0.001025;-0.500488;-0.276855;0.611328;-0.178278;-0.782508;0.099497;-0.588216
28703;9.370669;1.563174;-2.390246;-0.013046;-0.007095;0.002369;-0.495850;-0.274658;0.604980;-0.178263;-0.782593;0.099556;-0.588098
28704;9.365209;1.550119;-2.393883;-0.009956;-0.002923;0.000513;-0.506836;-0.269775;0.603516;-0.178257;-0.782655;0.099589;-0.588011
28705;9.379222;1.557626;-2.381087;-0.003305;-0.004717;0.001126;-0.497803;-0.285889;0.599854;-0.178063;-0.782645;0.099575;-0.588086
28706;9.361407;1.569396;-2.401740;0.003802;-0.001897;-0.000424;-0.506104;-0.282471;0.603760;-0.178264;-0.782640;0.099639;-0.588020
28707;9.350498;1.598852;-2.439123;0.011441;0.002218;-0.005502;-0.491211;-0.285400;0.605225;-0.178293;-0.782603;0.099582;-0.588071
28708;9.355601;1.583996;-2.452348;0.012455;0.003007;-0.002903;-0.496094;-0.278076;0.602051;-0.178423;-0.782685;0.099554;-0.587928
28709;9.366463;1.554807;-2.414977;0.010634;0.002832;-0.004358;-0.505859;-0.282471;0.599121;-0.178405;-0.782718;0.099481;-0.587901
28710;9.352373;1.547532;-2.427930;0.001761;0.002630;-0.000200;-0.505615;-0.273438;0.607666;-0.178501;-0.782626;0.099515;-0.587989
28711;9.359847;1.565873;-2.381084;-0.007688;-0.002521;0.000410;-0.504883;-0.277832;0.605469;-0.178385;-0.782634;0.099510;-0.588014
28712;9.364794;1.551167;-2.394830;-0.016919;-0.007129;0.001748;-0.501465;-0.270264;0.603516;-0.178441;-0.782629;0.099609;-0.587987
28713;9.364589;1.551663;-2.395311;-0.014710;-0.004272;-0.000009;-0.502197;-0.281494;0.607178;-0.178346;-0.782645;0.099629;-0.587992
28714;9.383606;1.544622;-2.395936;-0.011123;-0.006714;-0.001163;-0.496338;-0.281006;0.607178;-0.178456;-0.782674;0.099701;-0.587907
28715;9.378254;1.560157;-2.383242;-0.007757;-0.004453;-0.000636;-0.502197;-0.278809;0.606201;-0.178552;-0.782742;0.099753;-0.587778
28716;9.342658;1.584418;-2.423861;-0.003715;-0.002281;-0.003954;-0.505127;-0.277344;0.606201;-0.178572;-0.782759;0.099747;-0.587750
28717;9.330068;1.610260;-2.441058;-0.002472;-0.001808;-0.003641;-0.500244;-0.277588;0.608887;-0.178538;-0.782756;0.099725;-0.587769
28718;9.363098;1.582283;-2.444739;0.001184;-0.002318;-0.003749;-0.502441;-0.283203;0.605469;-0.178484;-0.782818;0.099675;-0.587711
28719;9.377362;1.534100;-2.401031;0.004249;-0.001669;-0.001983;-0.505859;-0.280029;0.607422;-0.178542;-0.782824;0.099675;-0.587685
28720;9.382669;1.575776;-2.382011;0.005120;-0.004740;-0.001476;-0.502441;-0.275391;0.608398;-0.178492;-0.782841;0.099649;-0.587683
28721;9.350728;1.608688;-2.399833;-0.002565;-0.007264;-0.001066;-0.497070;-0.283691;0.605225;-0.178397;-0.782900;0.099633;-0.587635
28722;9.353520;1.617352;-2.441246;-0.004979;-0.006280;-0.000645;-0.500244;-0.280518;0.606201;-0.178538;-0.782950;0.099696;-0.587516
28723;9.363909;1.560189;-2.421401;-0.014050;-0.007892;-0.000229;-0.500488;-0.282227;0.610107;-0.178645;-0.782981;0.099784;-0.587426
28724;9.374237;1.503240;-2.401700;-0.007896;-0.008317;-0.002729;-0.493896;-0.270264;0.611816;-0.178724;-0.783049;0.099820;-0.587306
28725;9.374111;1.532173;-2.386044;-0.007970;-0.005000;-0.001365;-0.501709;-0.278320;0.599609;-0.178567;-0.783183;0.099783;-0.587181
28726;9.329805;1.590662;-2.420190;-0.010746;-0.003175;-0.001355;-0.506836;-0.272705;0.607178;-0.178660;-0.783137;0.099861;-0.587200
28727;9.322488;1.629752;-2.434219;-0.015943;-0.004755;-0.000318;-0.496582;-0.278564;0.611572;-0.178588;-0.783120;0.099907;-0.587238
28728;9.367565;1.632838;-2.451948;-0.017617;-0.006317;-0.002091;-0.505859;-0.275391;0.608643;-0.178647;-0.783207;0.099952;-0.587096
28729;9.383336;1.505384;-2.414511;-0.011464;-0.006739;-0.004592;-0.510742;-0.280029;0.606445;-0.178612;-0.783221;0.099961;-0.587086
28730;9.395348;1.565377;-2.412430;-0.004375;-0.003053;-0.003127;-0.502197;-0.287842;0.612549;-0.178620;-0.783166;0.099983;-0.587154
28731;9.337397;1.589032;-2.412226;-0.005101;-0.001369;-0.003949;-0.500732;-0.283936;0.606201;-0.178753;-0.783197;0.099985;-0.587072
28732;9.327834;1.623259;-2.469823;-0.012066;-0.004724;0.000300;-0.499756;-0.290527;0.605957;-0.178890;-0.783201;0.100072;-0.587010
28733;9.364371;1.576309;-2.466880;-0.014898;-0.005689;-0.003753;-0.500244;-0.282227;0.608154;-0.179185;-0.783203;0.100173;-0.586899
28734;9.378483;1.528944;-2.423610;-0.007360;-0.007020;-0.006261;-0.503662;-0.279541;0.607666;-0.179266;-0.783252;0.100180;-0.586808
28735;9.362629;1.546844;-2.400706;-0.001434;-0.002735;-0.007077;-0.500732;-0.283691;0.598145;-0.179258;-0.783265;0.100139;-0.586801
28736;9.346302;1.592261;-2.424904;0.003462;-0.002768;-0.006875;-0.505859;-0.279297;0.606689;-0.179371;-0.783233;0.100134;-0.586810
28737;9.345410;1.621055;-2.472769;-0.003552;-0.004527;-0.007291;-0.497803;-0.271973;0.599365;-0.179367;-0.783230;0.100106;-0.586820
28738;9.341850;1.585803;-2.449222;-0.006246;-0.001632;-0.009247;-0.500977;-0.282715;0.606445;-0.179339;-0.783230;0.100068;-0.586834
28739;9.363138;1.584108;-2.405925;0.003087;-0.001066;-0.004269;-0.503662;-0.277344;0.605225;-0.179359;-0.783245;0.100037;-0.586814
28740;9.366251;1.621436;-2.429782;0.008432;0.003519;-0.006225;-0.504150;-0.282227;0.602051;-0.179260;-0.783229;0.099941;-0.586882
28741;9.353605;1.618990;-2.462772;0.010998;0.005539;-0.007568;-0.497314;-0.276611;0.611328;-0.179269;-0.783174;0.099865;-0.586965
28742;9.331161;1.590348;-2.438331;0.009593;0.002922;-0.003944;-0.498291;-0.276855;0.607422;-0.179113;-0.783249;0.099739;-0.586934
28743;9.323676;1.600698;-2.468929;0.000589;-0.005546;-0.001275;-0.502930;-0.285645;0.607178;-0.179032;-0.783314;0.099711;-0.586877
28744;9.351797;1.615580;-2.443131;-0.004022;-0.003040;0.000301;-0.494141;-0.286377;0.605469;-0.179121;-0.783309;0.099761;-0.586848
28745;9.379930;1.630577;-2.417225;-0.016892;-0.007158;0.001750;-0.507080;-0.279541;0.607422;-0.179336;-0.783350;0.099896;-0.586704
28746;9.366002;1.567644;-2.400112;-0.020475;-0.004723;0.002909;-0.496338;-0.282959;0.609131;-0.179390;-0.783310;0.100016;-0.586721
28747;9.386725;1.564491;-2.420543;-0.007606;-0.000604;0.001460;-0.500000;-0.284912;0.601807;-0.179447;-0.783349;0.100057;-0.586645
28748;9.346121;1.603217;-2.447213;-0.001025;0.000069;0.000417;-0.505371;-0.279297;0.600830;-0.179543;-0.783318;0.100107;-0.586648
28749;9.365506;1.624033;-2.430917;-0.000649;-0.001632;-0.002190;-0.501221;-0.280273;0.608154;-0.179536;-0.783267;0.100118;-0.586716
28750;9.349534;1.584514;-2.440739;-0.004600;-0.002742;-0.000840;-0.499756;-0.271973;0.607178;-0.179526;-0.783289;0.100127;-0.586689
28751;9.349433;1.584836;-2.440917;-0.008038;-0.001693;0.000001;-0.499756;-0.282959;0.600342;-0.179401;-0.783317;0.100119;-0.586691
28752;9.352928;1.566027;-2.434206;-0.006204;-0.002375;-0.001564;-0.500977;-0.280518;0.603271;-0.179520;-0.783288;0.100188;-0.586681
28753;9.343767;1.544181;-2.460899;-0.006351;-0.000989;-0.001244;-0.503174;-0.276855;0.610840;-0.179565;-0.783268;0.100227;-0.586687
28754;9.345597;1.605122;-2.447967;-0.006000;-0.000974;0.002184;-0.497803;-0.282715;0.606201;-0.179461;-0.783287;0.100227;-0.586693
28755;9.379004;1.605162;-2.434791;-0.008318;0.000221;-0.002378;-0.493408;-0.278320;0.599365;-0.179550;-0.783296;0.100259;-0.586649
28756;9.347627;1.582441;-2.420645;-0.010085;-0.001557;0.000834;-0.502197;-0.280518;0.604004;-0.179623;-0.783299;0.100338;-0.586609
28757;9.361748;1.590037;-2.407423;-0.006795;-0.001219;0.000313;-0.503174;-0.287598;0.605225;-0.179651;-0.783276;0.100386;-0.586623
28758;9.366739;1.575357;-2.421063;-0.005476;-0.004061;-0.000745;-0.497070;-0.281250;0.602295;-0.179781;-0.783260;0.100457;-0.586593
28759;9.362978;1.594999;-2.428235;-0.006202;-0.002376;-0.001565;-0.503662;-0.283203;0.608398;-0.179849;-0.783266;0.100500;-0.586557
28760;9.332981;1.576536;-2.434784;-0.002766;-0.003424;-0.002407;-0.500732;-0.289307;0.602783;-0.179864;-0.783277;0.100502;-0.586537
28761;9.364131;1.600174;-2.449186;-0.003574;-0.002812;-0.001259;-0.498779;-0.276855;0.596436;-0.180034;-0.783255;0.100579;-0.586501
28762;9.366123;1.577137;-2.422284;-0.004664;-0.000284;-0.002489;-0.501465;-0.280518;0.604980;-0.180048;-0.783216;0.100601;-0.586545
28763;9.362419;1.596862;-2.429164;-0.003937;-0.001969;-0.001669;-0.492920;-0.280518;0.604248;-0.180047;-0.783216;0.100609;-0.586544
28764;9.316397;1.622462;-2.459326;-0.004462;-0.003273;0.001856;-0.507324;-0.291260;0.604980;-0.180065;-0.783266;0.100649;-0.586465
28765;9.349617;1.622273;-2.447035;-0.009789;-0.008722;0.000789;-0.501953;-0.288330;0.603271;-0.180253;-0.783232;0.100781;-0.586430
28766;9.360361;1.593000;-2.410853;-0.008843;-0.005475;0.001744;-0.500977;-0.286133;0.614990;-0.180406;-0.783212;0.100898;-0.586390
28767;9.379331;1.557169;-2.428071;-0.005849;-0.002363;0.001863;-0.497559;-0.280518;0.603760;-0.180430;-0.783259;0.100934;-0.586312
28768;9.376337;1.548614;-2.387682;-0.000364;0.000843;-0.000410;-0.505615;-0.286133;0.609375;-0.180414;-0.783265;0.100932;-0.586310
28769;9.344567;1.581635;-2.404210;0.003153;0.000869;-0.003219;-0.502441;-0.279785;0.605225;-0.180422;-0.783254;0.100902;-0.586327
28770;9.347660;1.618753;-2.428099;0.000592;-0.001155;-0.001878;-0.507812;-0.283447;0.610352;-0.180367;-0.783254;0.100876;-0.586349
28771;9.357742;1.589238;-2.455096;0.001036;-0.000924;-0.003436;-0.496338;-0.283936;0.607178;-0.180330;-0.783246;0.100838;-0.586377
28772;9.350930;1.600426;-2.421993;-0.003493;-0.006128;-0.002632;-0.501709;-0.286865;0.606689;-0.180381;-0.783304;0.100855;-0.586281
28773;9.376544;1.582547;-2.456463;-0.004233;-0.003587;-0.000433;-0.499023;-0.282959;0.601807;-0.180459;-0.783307;0.100901;-0.586245
28774;9.350333;1.572892;-2.439746;-0.004448;-0.004131;-0.001163;-0.502686;-0.283691;0.595215;-0.180515;-0.783307;0.100941;-0.586221
28775;9.327280;1.600174;-2.446736;-0.005176;-0.002446;-0.001982;-0.496826;-0.285156;0.605713;-0.180617;-0.783240;0.101003;-0.586269
28776;9.328637;1.604972;-2.467100;-0.004299;-0.001127;-0.002079;-0.498779;-0.281738;0.605957;-0.180697;-0.783258;0.101034;-0.586215
28777;9.351409;1.578845;-2.460446;-0.002535;0.000654;-0.005290;-0.502441;-0.282471;0.606445;-0.180715;-0.783268;0.101007;-0.586200
28778;9.355108;1.588590;-2.436903;-0.004663;-0.000285;-0.002488;-0.503906;-0.278320;0.606689;-0.180728;-0.783259;0.101010;-0.586208
28779;9.357101;1.565649;-2.410052;-0.009338;-0.004105;-0.001364;-0.499756;-0.280273;0.614746;-0.180688;-0.783261;0.101020;-0.586216
28780;9.350995;1.580745;-2.460800;-0.005175;-0.002446;-0.001983;-0.501465;-0.282715;0.601562;-0.180624;-0.783326;0.100988;-0.586154
28781;9.331709;1.617248;-2.444272;-0.000635;-0.002485;-0.005211;-0.497803;-0.278564;0.607178;-0.180661;-0.783313;0.100981;-0.586162
28782;9.340434;1.612026;-2.434436;0.004619;0.001036;-0.005195;-0.500488;-0.277100;0.606689;-0.180576;-0.783349;0.100895;-0.586155
28783;9.361076;1.609213;-2.454936;0.006587;-0.000174;-0.004064;-0.500488;-0.283936;0.602783;-0.180445;-0.783377;0.100802;-0.586173
28784;9.338624;1.580122;-2.431049;0.005551;0.000749;-0.000627;-0.499268;-0.287598;0.611816;-0.180441;-0.783363;0.100797;-0.586194
28785;9.352802;1.587537;-2.417751;-0.000944;0.001142;-0.001549;-0.499512;-0.281006;0.599121;-0.180483;-0.783389;0.100789;-0.586148
28786;9.342429;1.589533;-2.407307;0.000740;0.001849;-0.002794;-0.496582;-0.281250;0.611572;-0.180502;-0.783354;0.100791;-0.586188
28787;9.334883;1.600353;-2.437646;-0.000270;-0.003329;-0.004801;-0.498779;-0.285156;0.598389;-0.180464;-0.783428;0.100733;-0.586110
28788;9.336139;1.605105;-2.458407;-0.003866;-0.004432;-0.000024;-0.496826;-0.285400;0.604248;-0.180566;-0.783408;0.100814;-0.586093
28789;9.348508;1.580220;-2.442002;-0.003934;-0.001972;-0.001669;-0.499756;-0.283203;0.603271;-0.180647;-0.783419;0.100851;-0.586047
28790;9.364029;1.592275;-2.449207;-0.003934;-0.001972;-0.001669;-0.502686;-0.276611;0.609375;-0.180689;-0.783412;0.100879;-0.586038
28791;9.326883;1.612114;-2.469075;-0.002843;-0.000109;-0.001035;-0.494629;-0.273682;0.606445;-0.180574;-0.783425;0.100835;-0.586063
28792;9.319586;1.650956;-2.482568;-0.003423;0.000190;-0.002175;-0.499512;-0.290039;0.605469;-0.180467;-0.783469;0.100782;-0.586048
28793;9.351321;1.618648;-2.465914;-0.006346;-0.000994;-0.001243;-0.503174;-0.282959;0.608398;-0.180614;-0.783456;0.100851;-0.586007
28794;9.349568;1.586556;-2.462484;-0.006857;-0.003156;-0.000738;-0.500000;-0.279541;0.599365;-0.180623;-0.783460;0.100875;-0.585995
28795;9.355239;1.544273;-2.428818;-0.004662;-0.000287;-0.002488;-0.492188;-0.285400;0.601562;-0.180647;-0.783428;0.100901;-0.586026
28796;9.350089;1.559616;-2.415308;-0.003866;-0.000042;-0.000617;-0.503174;-0.283936;0.597900;-0.180751;-0.783438;0.100957;-0.585970
28797;9.321328;1.629555;-2.455710;-0.003933;-0.001972;-0.001670;-0.498047;-0.280762;0.600342;-0.180827;-0.783385;0.101018;-0.586008
28798;9.338991;1.618237;-2.435851;-0.002830;-0.000965;-0.004054;-0.498291;-0.283447;0.600098;-0.180855;-0.783376;0.101021;-0.586011
28799;9.334999;1.609851;-2.459632;-0.001373;-0.004336;-0.002418;-0.505615;-0.284180;0.612061;-0.180905;-0.783378;0.101053;-0.585987
28800;9.382237;1.589193;-2.450563;0.000162;-0.002241;-0.003341;-0.492676;-0.276855;0.603516;-0.180863;-0.783396;0.101008;-0.585983
28801;9.366578;1.606286;-2.427278;0.008418;-0.000849;-0.005631;-0.501953;-0.289307;0.615234;-0.180758;-0.783455;0.100901;-0.585955
28802;9.339565;1.596354;-2.474171;0.005563;-0.000104;-0.003647;-0.499512;-0.284668;0.607910;-0.180751;-0.783498;0.100839;-0.585911
28803;9.329006;1.598721;-2.464195;-0.003476;-0.002597;-0.006247;-0.493652;-0.283447;0.611328;-0.180800;-0.783522;0.100820;-0.585868
28804;9.343004;1.606959;-2.451049;-0.004002;0.000487;-0.003315;-0.494873;-0.275391;0.607910;-0.180815;-0.783575;0.100792;-0.585796
28805;9.371093;1.594083;-2.441194;-0.009846;-0.001883;-0.001451;-0.496582;-0.280518;0.603027;-0.180759;-0.783618;0.100779;-0.585758
28806;9.371029;1.594689;-2.441044;-0.008096;0.000755;-0.001643;-0.492920;-0.286133;0.608398;-0.180797;-0.783608;0.100811;-0.585754
28807;9.337577;1.595254;-2.453854;-0.003286;-0.000343;0.000523;-0.495850;-0.280029;0.604004;-0.180842;-0.783648;0.100831;-0.585683
28808;9.337694;1.623712;-2.437177;-0.006344;-0.000997;-0.001243;-0.499023;-0.281006;0.602783;-0.180852;-0.783658;0.100850;-0.585663
28809;9.360568;1.597246;-2.430568;-0.003866;-0.000044;-0.000617;-0.500488;-0.281250;0.608643;-0.180858;-0.783644;0.100875;-0.585677
28810;9.351707;1.603520;-2.440178;-0.009052;0.002751;-0.000172;-0.500977;-0.280518;0.608643;-0.180856;-0.783630;0.100888;-0.585693
28811;9.390331;1.588696;-2.440130;-0.006277;0.000932;-0.000190;-0.499268;-0.286377;0.601074;-0.180823;-0.783629;0.100887;-0.585705
28812;9.359069;1.565705;-2.425915;-0.010436;-0.000731;0.000427;-0.499756;-0.284424;0.608398;-0.180954;-0.783590;0.100994;-0.585699
28813;9.327157;1.599059;-2.442405;-0.013343;-0.002772;-0.001662;-0.499023;-0.282715;0.601562;-0.181027;-0.783597;0.101044;-0.585658
28814;9.338959;1.630721;-2.456366;-0.014875;-0.004869;-0.000741;-0.505371;-0.281982;0.607422;-0.181129;-0.783582;0.101144;-0.585629
28815;9.333470;1.618201;-2.459954;-0.017135;-0.005280;-0.000637;-0.502686;-0.282715;0.607910;-0.181176;-0.783567;0.101218;-0.585622
28816;9.348820;1.630774;-2.467411;-0.013257;-0.006089;-0.003040;-0.502930;-0.282227;0.595703;-0.181220;-0.783578;0.101256;-0.585587
28817;9.327880;1.634707;-2.447271;-0.011306;-0.002055;0.000522;-0.498047;-0.287598;0.603516;-0.181320;-0.783506;0.101386;-0.585629
28818;9.327009;1.663323;-2.494510;-0.012530;-0.003385;-0.002812;-0.497070;-0.288086;0.605957;-0.181467;-0.783500;0.101470;-0.585578
28819;9.339488;1.638763;-2.477651;-0.014886;0.000370;0.001691;-0.497314;-0.273926;0.601074;-0.181597;-0.783483;0.101575;-0.585541
28820;9.354093;1.562097;-2.450451;-0.014371;-0.001859;0.001775;-0.491699;-0.290771;0.606445;-0.181555;-0.783475;0.101620;-0.585558
28821;9.354082;1.562382;-2.450309;-0.009191;-0.000260;0.000740;-0.496094;-0.289551;0.603760;-0.181694;-0.783496;0.101699;-0.585473
28822;9.343137;1.620423;-2.470315;-0.007145;-0.000391;-0.000096;-0.495605;-0.286621;0.602539;-0.181815;-0.783489;0.101776;-0.585432
28823;9.329101;1.641423;-2.466801;-0.002919;-0.001189;0.000930;-0.496826;-0.280273;0.606445;-0.181868;-0.783492;0.101828;-0.585402
28824;9.329085;1.641387;-2.466887;-0.003941;-0.001123;0.001347;-0.492920;-0.287354;0.611084;-0.181808;-0.783516;0.101823;-0.585390
28825;9.348358;1.633607;-2.467287;-0.004020;-0.002201;0.003312;-0.499756;-0.285889;0.615967;-0.181815;-0.783573;0.101848;-0.585307
28826;9.341534;1.587556;-2.467011;-0.004239;0.001648;0.001996;-0.501465;-0.294434;0.601807;-0.181765;-0.783605;0.101825;-0.585284
28827;9.346898;1.600528;-2.463577;-0.001909;-0.000404;0.003532;-0.496338;-0.284668;0.599854;-0.181889;-0.783562;0.101934;-0.585283
28828;9.348479;1.604678;-2.483453;-0.004967;0.003334;0.001181;-0.491211;-0.287109;0.607422;-0.181944;-0.783526;0.101993;-0.585304
28829;9.347201;1.600132;-2.462686;-0.002786;0.002667;0.003041;-0.496582;-0.288574;0.607178;-0.181972;-0.783551;0.102024;-0.585256
28830;9.356118;1.565749;-2.468952;-0.002342;0.002902;0.001484;-0.504150;-0.286377;0.605713;-0.182012;-0.783549;0.102053;-0.585241
28831;9.354952;1.589461;-2.431560;-0.001535;0.002294;0.000335;-0.500488;-0.285645;0.608398;-0.182012;-0.783515;0.102068;-0.585284
28832;9.324705;1.626716;-2.467722;-0.001899;0.003137;-0.000073;-0.494141;-0.289795;0.609131;-0.182001;-0.783507;0.102063;-0.585299
28833;9.358339;1.626504;-2.453979;-0.004457;0.005497;0.000679;-0.503418;-0.284180;0.607666;-0.182068;-0.783509;0.102088;-0.585271
28834;9.365861;1.588001;-2.439612;-0.006137;0.004785;0.001922;-0.501953;-0.284912;0.608398;-0.182055;-0.783471;0.102112;-0.585323
28835;9.389126;1.589400;-2.415608;-0.004522;0.003569;-0.000377;-0.494629;-0.287842;0.604492;-0.182050;-0.783452;0.102113;-0.585349
28836;9.355803;1.589927;-2.427977;-0.007441;0.002379;0.000551;-0.501709;-0.285400;0.601318;-0.182133;-0.783445;0.102168;-0.585323
28837;9.334349;1.593208;-2.470686;-0.000366;0.005235;-0.000991;-0.504395;-0.279541;0.614502;-0.182150;-0.783394;0.102179;-0.585384
28838;9.316891;1.633469;-2.473075;0.002916;0.005581;-0.001512;-0.504395;-0.285645;0.611084;-0.181999;-0.783402;0.102081;-0.585438
28839;9.345276;1.619986;-2.462499;0.008095;0.007182;-0.002543;-0.500732;-0.280762;0.609131;-0.181913;-0.783389;0.101991;-0.585498
28840;9.345502;1.620050;-2.461599;0.008096;0.007181;-0.002543;-0.498535;-0.288574;0.607422;-0.181792;-0.783388;0.101890;-0.585554
28841;9.353145;1.609676;-2.430594;0.010720;0.006749;-0.002238;-0.504639;-0.284424;0.604492;-0.181755;-0.783386;0.101815;-0.585580
28842;9.326751;1.627133;-2.459701;0.011501;0.007841;0.002654;-0.499268;-0.286621;0.602051;-0.181652;-0.783342;0.101777;-0.585679
28843;9.360557;1.626341;-2.445613;0.007142;0.009173;-0.001071;-0.505371;-0.290527;0.606689;-0.181649;-0.783297;0.101751;-0.585744
28844;9.341455;1.605512;-2.461075;0.007211;0.006709;0.000570;-0.495361;-0.285889;0.604248;-0.181636;-0.783255;0.101729;-0.585808
28845;9.368452;1.587277;-2.430119;0.006484;0.008395;-0.000246;-0.485596;-0.285889;0.612061;-0.181619;-0.783242;0.101693;-0.585838
28846;9.359894;1.592966;-2.439002;0.004802;0.007683;0.000996;-0.501221;-0.276855;0.607422;-0.181580;-0.783303;0.101625;-0.585779
28847;9.351330;1.598550;-2.447993;0.005166;0.006840;0.001404;-0.489746;-0.289062;0.609619;-0.181438;-0.783291;0.101569;-0.585849
28848;9.323512;1.611685;-2.456720;0.001734;0.007880;0.002247;-0.500977;-0.288086;0.607910;-0.181451;-0.783314;0.101545;-0.585818
28849;9.358779;1.615405;-2.462805;-0.000378;0.006084;0.002025;-0.500977;-0.289062;0.602539;-0.181457;-0.783290;0.101550;-0.585848
28850;9.336677;1.585648;-2.438050;-0.000459;0.005006;0.003990;-0.497070;-0.284668;0.606934;-0.181493;-0.783245;0.101603;-0.585888
28851;9.342299;1.598302;-2.433817;0.001291;0.007645;0.003803;-0.500732;-0.284912;0.593506;-0.181459;-0.783229;0.101603;-0.585919
28852;9.333784;1.603729;-2.442754;0.004145;0.006904;0.001821;-0.499756;-0.282471;0.603516;-0.181489;-0.783151;0.101654;-0.586006
28853;9.330539;1.622483;-2.448382;0.001951;0.008421;0.002978;-0.493164;-0.280273;0.611084;-0.181447;-0.783111;0.101657;-0.586071
28854;9.344980;1.601151;-2.450512;-0.000672;0.008853;0.002671;-0.500000;-0.287109;0.598877;-0.181374;-0.783127;0.101619;-0.586079
28855;9.366845;1.569348;-2.422292;-0.003971;0.009359;0.006209;-0.499023;-0.280518;0.608643;-0.181432;-0.783047;0.101711;-0.586153
28856;9.348026;1.576302;-2.420761;-0.002207;0.006757;0.003589;-0.492920;-0.285645;0.602051;-0.181367;-0.783036;0.101707;-0.586187
28857;9.335915;1.600902;-2.436455;-0.003312;0.005745;0.005970;-0.496582;-0.284668;0.602539;-0.181399;-0.783020;0.101772;-0.586188
28858;9.362525;1.638275;-2.435795;0.000848;0.007408;0.005360;-0.501465;-0.290283;0.604248;-0.181388;-0.782990;0.101807;-0.586225
28859;9.361472;1.633031;-2.414378;0.001724;0.008727;0.005267;-0.497803;-0.292480;0.604492;-0.181410;-0.782939;0.101846;-0.586281
28860;9.351397;1.605767;-2.419621;0.001955;0.008418;0.002978;-0.505615;-0.284180;0.605469;-0.181469;-0.782905;0.101873;-0.586302
28861;9.353805;1.553219;-2.408097;0.002964;0.009202;0.005582;-0.506348;-0.286133;0.609863;-0.181405;-0.782848;0.101883;-0.586396
28862;9.355858;1.556703;-2.426848;0.005310;0.010688;0.003516;-0.500244;-0.283447;0.600342;-0.181334;-0.782803;0.101853;-0.586484
28863;9.343916;1.581062;-2.442161;0.002965;0.009201;0.005581;-0.507324;-0.288818;0.609131;-0.181301;-0.782749;0.101883;-0.586561
28864;9.353405;1.602323;-2.414137;-0.004481;0.007196;0.006706;-0.499268;-0.275391;0.608887;-0.181304;-0.782696;0.101937;-0.586621
28865;9.372954;1.565827;-2.429896;-0.002864;0.005979;0.004411;-0.507812;-0.285156;0.605225;-0.181197;-0.782696;0.101932;-0.586656
28866;9.363047;1.595086;-2.401919;-0.003226;0.006821;0.004002;-0.503174;-0.289307;0.599854;-0.181189;-0.782636;0.101972;-0.586731
28867;9.363454;1.594491;-2.400728;-0.000748;0.007772;0.004634;-0.502686;-0.290527;0.599365;-0.181238;-0.782568;0.102036;-0.586796
28868;9.346165;1.605758;-2.419579;-0.003671;0.006587;0.005558;-0.494873;-0.286377;0.601318;-0.181314;-0.782501;0.102126;-0.586846
28869;9.356878;1.575417;-2.445162;-0.005994;0.008639;0.004014;-0.498047;-0.285156;0.602539;-0.181384;-0.782463;0.102193;-0.586863
28870;9.360931;1.555665;-2.436929;-0.006439;0.008404;0.005570;-0.497803;-0.281738;0.607910;-0.181422;-0.782419;0.102263;-0.586898
28871;9.356279;1.569835;-2.422066;-0.001554;0.008378;0.005781;-0.500488;-0.277588;0.601074;-0.181371;-0.782407;0.102279;-0.586926
28872;9.360498;1.578001;-2.397093;-0.005561;0.009721;0.005477;-0.500488;-0.286377;0.596680;-0.181334;-0.782351;0.102325;-0.587005
28873;9.366243;1.590617;-2.392403;-0.006953;0.006242;0.006070;-0.508301;-0.284912;0.596191;-0.181406;-0.782284;0.102434;-0.587052
28874;9.371769;1.575039;-2.404804;-0.004546;0.005266;0.005649;-0.497070;-0.286865;0.607422;-0.181432;-0.782199;0.102525;-0.587143
28875;9.368774;1.537788;-2.380276;-0.004082;0.004653;0.001073;-0.503662;-0.291748;0.607910;-0.181470;-0.782204;0.102546;-0.587119
28876;9.356623;1.563150;-2.395950;0.001043;0.008708;-0.001589;-0.503906;-0.294189;0.603027;-0.181520;-0.782174;0.102531;-0.587147
28877;9.382893;1.545072;-2.428578;0.000080;0.006312;0.000468;-0.501709;-0.278320;0.599365;-0.181606;-0.782131;0.102563;-0.587173
28878;9.353636;1.582468;-2.400388;-0.001664;0.008064;0.000065;-0.500488;-0.285645;0.602051;-0.181575;-0.782085;0.102559;-0.587243
28879;9.385221;1.577712;-2.429564;-0.007210;0.007313;0.000675;-0.501221;-0.283203;0.612305;-0.181640;-0.782043;0.102605;-0.587271
28880;9.362944;1.548666;-2.404556;-0.010349;0.005586;0.000864;-0.500977;-0.280762;0.600098;-0.181657;-0.782043;0.102627;-0.587263
28881;9.359717;1.596497;-2.393442;-0.015086;0.004226;0.000326;-0.500488;-0.293213;0.600586;-0.181732;-0.782000;0.102704;-0.587283
28882;9.336944;1.595947;-2.415639;-0.014997;0.005303;-0.001639;-0.502930;-0.281982;0.605225;-0.181929;-0.781948;0.102802;-0.587274
28883;9.361547;1.574050;-2.428112;-0.007277;0.005386;-0.000380;-0.500488;-0.285156;0.606445;-0.181940;-0.781924;0.102818;-0.587300
28884;9.360163;1.569959;-2.406931;-0.000709;0.006072;-0.001403;-0.501465;-0.286865;0.599854;-0.181943;-0.781919;0.102801;-0.587309
28885;9.365612;1.583579;-2.402705;0.005068;0.006519;-0.004299;-0.499023;-0.281982;0.600830;-0.181962;-0.781894;0.102763;-0.587343
28886;9.355353;1.585513;-2.391673;0.006882;0.006692;-0.002840;-0.502441;-0.294922;0.600098;-0.181920;-0.781886;0.102707;-0.587376
28887;9.378385;1.558707;-2.384212;0.003151;0.006113;-0.000774;-0.509521;-0.276611;0.605713;-0.182003;-0.781849;0.102725;-0.587397
28888;9.369770;1.564718;-2.393385;0.004174;0.006047;-0.001188;-0.499023;-0.278809;0.598633;-0.181876;-0.781824;0.102658;-0.587480
28889;9.345514;1.558960;-2.395553;0.005482;0.008446;0.000185;-0.504395;-0.287109;0.604248;-0.181811;-0.781799;0.102624;-0.587541
28890;9.364758;1.607714;-2.424999;0.008804;0.007095;-0.006365;-0.505615;-0.278809;0.598145;-0.181796;-0.781785;0.102539;-0.587578
28891;9.380953;1.591839;-2.383853;0.006310;0.006991;-0.003982;-0.507324;-0.281006;0.598633;-0.181731;-0.781747;0.102476;-0.587659
28892;9.375838;1.578892;-2.386349;0.003746;0.004963;-0.002653;-0.504883;-0.286133;0.605469;-0.181691;-0.781709;0.102444;-0.587729
28893;9.342636;1.579431;-2.398832;0.002937;0.005571;-0.001507;-0.503174;-0.290039;0.606689;-0.181675;-0.781694;0.102413;-0.587758
28894;9.374199;1.602851;-2.411836;0.002060;0.004253;-0.001416;-0.500488;-0.278320;0.603516;-0.181698;-0.781692;0.102396;-0.587757
28895;9.353321;1.578148;-2.407803;0.000967;0.002394;-0.002056;-0.500244;-0.287598;0.596680;-0.181643;-0.781705;0.102360;-0.587762
28896;9.351769;1.574221;-2.387081;-0.001351;0.004446;-0.003603;-0.500000;-0.280029;0.607178;-0.181727;-0.781675;0.102379;-0.587774
28897;9.353579;1.579034;-2.406219;-0.002236;0.008361;-0.001080;-0.496582;-0.296143;0.598633;-0.181695;-0.781667;0.102347;-0.587800
28898;9.355454;1.583610;-2.425273;0.005864;0.006755;-0.002426;-0.503174;-0.283203;0.603271;-0.181801;-0.781648;0.102352;-0.587791
28899;9.362553;1.601495;-2.441157;0.007192;0.008307;-0.004073;-0.508057;-0.284180;0.603516;-0.181759;-0.781630;0.102279;-0.587841
28900;9.350741;1.598987;-2.409686;0.009669;0.009257;-0.003436;-0.511230;-0.283203;0.601562;-0.181695;-0.781595;0.102198;-0.587922
28901;9.340552;1.600703;-2.398485;0.007104;0.007229;-0.002108;-0.507080;-0.283691;0.603271;-0.181632;-0.781548;0.102144;-0.588013
28902;9.367342;1.610885;-2.350587;0.001985;0.007560;-0.000040;-0.502197;-0.284668;0.605469;-0.181601;-0.781510;0.102125;-0.588076
28903;9.374382;1.572062;-2.399910;-0.001605;0.005599;0.001702;-0.502930;-0.280273;0.603760;-0.181594;-0.781499;0.102133;-0.588092
28904;9.346518;1.585567;-2.409068;0.002276;0.004793;-0.000684;-0.501465;-0.283936;0.609375;-0.181541;-0.781494;0.102102;-0.588120
28905;9.383722;1.594191;-2.371353;-0.000636;0.007992;-0.000355;-0.503662;-0.278809;0.608643;-0.181520;-0.781491;0.102070;-0.588137
28906;9.373526;1.567454;-2.376830;-0.004102;0.005497;0.004084;-0.501221;-0.276123;0.609863;-0.181454;-0.781484;0.102078;-0.588164
28907;9.359776;1.588359;-2.372400;-0.008874;0.005748;-0.001122;-0.506592;-0.287109;0.606689;-0.181424;-0.781488;0.102064;-0.588171
28908;9.358090;1.612241;-2.398259;-0.003202;0.005965;0.000973;-0.504639;-0.287598;0.612305;-0.181435;-0.781462;0.102071;-0.588201
28909;9.354767;1.603310;-2.420637;-0.002323;0.007282;0.000882;-0.508789;-0.279297;0.601807;-0.181423;-0.781457;0.102043;-0.588216
28910;9.367472;1.606192;-2.386011;-0.002178;0.005899;0.000560;-0.504150;-0.279785;0.604248;-0.181392;-0.781413;0.102059;-0.588281
28911;9.381786;1.585253;-2.388247;-0.005394;0.007479;0.002121;-0.507324;-0.278809;0.598633;-0.181375;-0.781380;0.102082;-0.588326
28912;9.382362;1.557081;-2.339969;-0.006937;0.005386;0.003035;-0.499268;-0.282227;0.595703;-0.181378;-0.781325;0.102152;-0.588387
28913;9.379043;1.548166;-2.362338;-0.010131;0.006119;0.001576;-0.506836;-0.279053;0.597168;-0.181459;-0.781277;0.102236;-0.588410
28914;9.347639;1.553043;-2.394643;-0.004797;0.006330;0.000244;-0.502197;-0.285400;0.597168;-0.181468;-0.781221;0.102279;-0.588475
28915;9.367300;1.601793;-2.360007;0.000606;0.008465;-0.000034;-0.508301;-0.290527;0.609619;-0.181499;-0.781175;0.102296;-0.588523
28916;9.385178;1.590079;-2.338624;0.002317;0.008328;-0.004289;-0.510742;-0.286377;0.607422;-0.181508;-0.781156;0.102226;-0.588557
28917;9.380191;1.577017;-2.340731;0.003227;0.008032;0.000283;-0.499756;-0.293945;0.596924;-0.181464;-0.781124;0.102188;-0.588620
28918;9.366731;1.541366;-2.305730;-0.003367;0.008192;0.004314;-0.499756;-0.287842;0.596680;-0.181563;-0.781073;0.102260;-0.588644
28919;9.383391;1.496053;-2.216798;-0.037596;0.004899;0.017051;-0.501953;-0.287354;0.595215;-0.181777;-0.780979;0.102581;-0.588647
28920;9.436143;1.374346;-2.332656;-0.091031;-0.001085;0.028231;-0.507324;-0.291260;0.603760;-0.182275;-0.780813;0.103252;-0.588597
28921;9.545398;1.169742;-2.271188;-0.117587;-0.008267;0.029397;-0.495605;-0.282715;0.605225;-0.182909;-0.780652;0.104041;-0.588475
28922;9.513585;1.140877;-1.918380;-0.141514;-0.024679;0.032018;-0.502197;-0.280273;0.600342;-0.183616;-0.780580;0.104963;-0.588186
28923;9.616150;0.944705;-1.510764;-0.207704;-0.067650;0.036722;-0.506348;-0.287842;0.602783;-0.184673;-0.780577;0.106323;-0.587615
28924;9.824468;0.743316;-1.445645;-0.266206;-0.129651;0.030382;-0.495850;-0.292969;0.604980;-0.186108;-0.780780;0.108023;-0.586581
28925;9.842649;0.468092;-1.550878;-0.279422;-0.159098;0.006971;-0.495605;-0.296631;0.606689;-0.187739;-0.781158;0.109666;-0.585252
28926;9.869793;0.196818;-1.673083;-0.208753;-0.178858;-0.034209;-0.501709;-0.291748;0.597168;-0.189087;-0.781776;0.110724;-0.583792
28927;9.900795;-0.062626;-1.712940;-0.112503;-0.193599;-0.071188;-0.492432;-0.298828;0.599365;-0.189956;-0.782591;0.111147;-0.582335
28928;9.812134;-0.153651;-1.586755;-0.043852;-0.220946;-0.104214;-0.495117;-0.304688;0.606689;-0.190552;-0.783697;0.111060;-0.580667
28929;9.691790;-0.129644;-1.408258;-0.035382;-0.259242;-0.133996;-0.491211;-0.298584;0.604492;-0.191196;-0.785025;0.110786;-0.578711
28930;9.601365;-0.075606;-1.313781;-0.101958;-0.313668;-0.164571;-0.489014;-0.298828;0.610107;-0.192341;-0.786522;0.110737;-0.576303
28931;9.680216;-0.258101;-1.300682;-0.207441;-0.379355;-0.203523;-0.472412;-0.306885;0.607910;-0.194269;-0.788198;0.111030;-0.573303
28932;9.788822;-0.474345;-1.064922;-0.268261;-0.450702;-0.250911;-0.470947;-0.320557;0.612305;-0.196817;-0.790164;0.111430;-0.569638
28933;10.163875;-1.101740;-0.540991;-0.319029;-0.583013;-0.250056;-0.474365;-0.312988;0.620850;-0.199606;-0.792637;0.112300;-0.565042
28934;10.322023;-1.481403;-0.703399;-0.272282;-0.640457;-0.213520;-0.455566;-0.318359;0.619385;-0.201729;-0.795387;0.113264;-0.560212
28935;7.703242;2.570497;-2.380773;-0.168656;-0.514670;-0.407142;-0.451660;-0.324707;0.619629;-0.204225;-0.797895;0.112261;-0.555925
28936;7.451940;5.709146;-4.045746;-0.289269;-0.448147;-0.354391;-0.448242;-0.332275;0.623047;-0.207351;-0.799796;0.112070;-0.552061
28937;7.052754;6.497993;-5.404355;-0.468364;-0.377047;-0.200052;-0.437500;-0.332520;0.617676;-0.211022;-0.800890;0.113592;-0.548764
28938;7.481702;5.883117;-6.197116;-0.606654;-0.380327;-0.205867;-0.439453;-0.341309;0.623047;-0.215631;-0.801742;0.115708;-0.545275
28939;8.019070;4.756699;-6.362811;-0.543310;-0.329034;-0.250618;-0.434814;-0.364990;0.620361;-0.220028;-0.802488;0.117108;-0.542113
28940;8.319110;4.031811;-6.183186;-0.308952;-0.187832;-0.218346;-0.423584;-0.359863;0.626465;-0.222958;-0.802961;0.117454;-0.540137
28941;8.408756;3.534765;-5.599273;-0.112454;-0.075832;-0.140534;-0.423828;-0.366699;0.621338;-0.224252;-0.803266;0.117138;-0.539216
28942;8.465092;3.057133;-4.826963;-0.000837;-0.020047;-0.115994;-0.422607;-0.364990;0.627197;-0.224791;-0.803480;0.116431;-0.538825
28943;8.641821;2.795700;-4.228234;0.034840;-0.009665;-0.174042;-0.417725;-0.361328;0.621338;-0.225320;-0.803791;0.115107;-0.538425
28944;8.784384;2.074972;-3.977595;0.047547;0.006666;-0.221591;-0.423828;-0.367676;0.617432;-0.225999;-0.804092;0.113395;-0.538054
28945;8.851261;0.868358;-3.383916;0.047341;0.028887;-0.237001;-0.414307;-0.367920;0.613281;-0.226808;-0.804266;0.111611;-0.537826
28946;9.006455;0.371511;-2.493767;0.048675;0.054072;-0.203543;-0.420410;-0.371094;0.613281;-0.227510;-0.804310;0.110010;-0.537794
28947;9.399801;1.340288;-1.506478;0.012202;0.043648;-0.152395;-0.419434;-0.371338;0.624756;-0.228216;-0.804261;0.108971;-0.537780
28948;9.589846;2.527998;-1.303175;-0.065899;0.013303;-0.154251;-0.414062;-0.372314;0.626953;-0.229371;-0.804233;0.108235;-0.537478
28949;9.563664;2.864239;-1.487327;-0.158394;-0.027718;-0.225467;-0.420654;-0.379395;0.618652;-0.231421;-0.804294;0.107475;-0.536660
28950;9.607862;2.765258;-1.879719;-0.175981;-0.051655;-0.280144;-0.420654;-0.378662;0.623047;-0.233846;-0.804424;0.106566;-0.535596
28951;9.312605;3.043070;-2.537059;-0.126445;-0.050495;-0.282377;-0.416748;-0.377686;0.623047;-0.235893;-0.804651;0.105361;-0.534594
28952;9.018395;4.073122;-3.041951;-0.094123;-0.036366;-0.245335;-0.410889;-0.383789;0.618408;-0.237546;-0.804850;0.104200;-0.533790
28953;8.749224;4.627094;-3.508295;-0.112810;-0.039378;-0.218223;-0.414551;-0.383545;0.620361;-0.239248;-0.804995;0.103345;-0.532976
28954;8.739166;4.471284;-3.982422;-0.119892;-0.054087;-0.226114;-0.405029;-0.387695;0.618896;-0.240979;-0.805188;0.102474;-0.532072
28955;8.714129;3.474344;-4.099127;-0.037184;-0.050330;-0.264011;-0.412598;-0.391357;0.616943;-0.242357;-0.805576;0.100957;-0.531148
28956;8.657223;2.421677;-4.008168;0.146116;-0.026714;-0.307616;-0.405029;-0.391357;0.608154;-0.242710;-0.806229;0.098356;-0.530484
28957;8.587012;1.916683;-3.608591;0.310716;0.007089;-0.333779;-0.401367;-0.391357;0.622803;-0.242151;-0.807068;0.094861;-0.530100
28958;8.526826;1.968431;-3.160932;0.387026;0.040433;-0.328138;-0.404053;-0.377930;0.624756;-0.241030;-0.807932;0.090873;-0.529993
28959;8.578567;2.167236;-2.728207;0.339599;0.038113;-0.295978;-0.399902;-0.385742;0.623047;-0.239998;-0.808670;0.087253;-0.529944
28960;8.944619;2.265100;-2.302923;0.221892;0.000089;-0.285504;-0.406738;-0.385742;0.621582;-0.239764;-0.809315;0.084398;-0.529528
28961;9.273421;2.206061;-2.317622;0.124199;-0.052170;-0.309723;-0.395508;-0.387695;0.626465;-0.240253;-0.809975;0.081995;-0.528674
28962;9.255468;2.109098;-2.494280;0.131805;-0.095322;-0.366133;-0.397949;-0.391846;0.627686;-0.240918;-0.810902;0.079190;-0.527375
28963;9.100329;1.994652;-2.505210;0.209269;-0.144343;-0.454274;-0.383057;-0.382812;0.626709;-0.241418;-0.812230;0.075608;-0.525627
28964;9.037373;2.074578;-2.379464;0.287343;-0.172208;-0.530556;-0.385010;-0.392090;0.631592;-0.241676;-0.813891;0.071120;-0.523560
28965;9.061815;2.360679;-2.156822;0.297086;-0.195246;-0.555990;-0.377930;-0.389893;0.638916;-0.241991;-0.815645;0.066567;-0.521279
28966;8.934500;2.910120;-2.330292;0.225197;-0.213280;-0.532728;-0.375244;-0.388672;0.638428;-0.242644;-0.817311;0.062434;-0.518873
28967;8.808306;3.037974;-2.575266;0.116641;-0.238408;-0.518388;-0.363281;-0.396973;0.640381;-0.243945;-0.818825;0.058949;-0.516277
28968;8.832956;2.720723;-2.908717;0.031001;-0.271993;-0.535901;-0.346680;-0.392578;0.650391;-0.245947;-0.820309;0.055831;-0.513309
28969;8.933295;2.476991;-2.824381;-0.020476;-0.301421;-0.557316;-0.351562;-0.394043;0.638916;-0.248321;-0.821844;0.052605;-0.510041
28970;8.924810;2.425585;-2.577400;-0.039365;-0.346398;-0.602962;-0.343994;-0.398682;0.652100;-0.250993;-0.823475;0.049444;-0.506405
28971;8.839669;2.326972;-2.234553;-0.051482;-0.394008;-0.651536;-0.333740;-0.406250;0.658203;-0.253880;-0.825290;0.045951;-0.502325
28972;9.019455;2.098221;-2.247492;-0.037985;-0.443836;-0.705848;-0.327393;-0.414551;0.646973;-0.256879;-0.827333;0.042108;-0.497755
28973;9.051961;2.128519;-2.359867;-0.006839;-0.499420;-0.759759;-0.314453;-0.409424;0.653076;-0.259931;-0.829621;0.038162;-0.492654
28974;8.842487;2.671371;-2.510160;0.054707;-0.545513;-0.813823;-0.300049;-0.411865;0.663086;-0.262677;-0.832210;0.033485;-0.487141
28975;9.133532;3.148260;-2.736867;0.122126;-0.588871;-0.881094;-0.288574;-0.418213;0.661621;-0.265167;-0.835093;0.028016;-0.481166
28976;9.646252;2.818420;-2.788768;0.221812;-0.635497;-0.961012;-0.278564;-0.422607;0.667480;-0.267293;-0.838320;0.021836;-0.474655
28977;9.989042;1.906328;-2.952213;0.328652;-0.658231;-1.024840;-0.260010;-0.421387;0.676514;-0.268892;-0.841793;0.014884;-0.467825
28978;10.547896;0.776665;-3.681785;0.413409;-0.684353;-1.080940;-0.242676;-0.422363;0.681885;-0.270058;-0.845475;0.007135;-0.460640
28979;11.730934;0.277702;-3.724007;0.522993;-0.782376;-1.173347;-0.231201;-0.421387;0.686768;-0.270776;-0.849670;-0.001445;-0.452482
28980;13.476247;-0.090622;-4.280317;0.644089;-0.938998;-1.249821;-0.217285;-0.420166;0.686768;-0.270872;-0.854565;-0.010566;-0.442984
28981;14.499733;-1.089292;-3.022149;0.681860;-1.094460;-1.334691;-0.189453;-0.410645;0.695557;-0.270998;-0.859921;-0.019821;-0.432092
28982;15.064012;-2.530876;-1.827519;0.710528;-1.253132;-1.406295;-0.171631;-0.402588;0.708984;-0.271099;-0.865687;-0.029507;-0.419787
28983;15.325652;-4.895997;-0.228154;0.817067;-1.336064;-1.482959;-0.149658;-0.400879;0.715332;-0.270563;-0.871686;-0.040051;-0.406638
28984;15.492076;-7.370328;1.624219;0.958296;-1.264886;-1.527929;-0.115234;-0.387939;0.723877;-0.269064;-0.877468;-0.051327;-0.393726
28985;12.134617;-4.364827;0.651148;0.803118;-1.304430;-1.637492;-0.090088;-0.384521;0.732666;-0.268974;-0.882696;-0.062960;-0.380181
28986;8.682240;1.051146;0.397760;0.977389;-1.552455;-1.777108;-0.065430;-0.375488;0.745850;-0.268074;-0.888683;-0.075483;-0.364255
28987;9.510843;6.544017;-5.930850;1.659866;-1.495798;-1.654645;-0.024658;-0.349121;0.760010;-0.261538;-0.895643;-0.089316;-0.348487
28988;9.799137;8.374350;-8.242307;2.131373;-1.319929;-1.577117;-0.004150;-0.325928;0.775879;-0.250967;-0.902648;-0.104678;-0.333594
28989;8.815460;8.785436;-8.163441;1.764763;-1.229020;-1.284397;0.014404;-0.305420;0.783936;-0.242123;-0.908404;-0.116881;-0.320184
28990;7.275788;9.068213;-8.913934;0.831057;-1.197717;-0.724521;0.030273;-0.289551;0.776855;-0.238762;-0.912460;-0.122239;-0.308979
28991;5.724621;8.513109;-9.676092;0.095072;-0.932740;-0.373976;0.043945;-0.293701;0.798096;-0.239810;-0.914609;-0.123500;-0.301212
28992;5.234111;7.695052;-8.469349;-0.151472;-0.877337;0.022447;0.042236;-0.291504;0.776855;-0.241611;-0.916439;-0.121485;-0.294965
28993;5.254118;7.731946;-7.659025;-0.033283;-0.509628;0.583547;0.047363;-0.290771;0.786377;-0.240795;-0.918156;-0.115782;-0.292579
28994;4.336632;8.461427;-7.491645;-0.042627;0.081571;1.050613;0.040527;-0.286377;0.784668;-0.238266;-0.918761;-0.108054;-0.295690
28995;3.592966;8.758274;-7.639605;-0.331124;0.638140;1.431570;0.028320;-0.300781;0.776855;-0.236449;-0.917626;-0.098019;-0.304052
28996;2.954633;8.745567;-7.481138;-0.792657;1.145281;1.812617;0.002686;-0.303711;0.770996;-0.236838;-0.914446;-0.084213;-0.317182
28997;2.746501;8.905500;-7.056381;-1.378773;1.493259;2.262329;-0.041016;-0.313965;0.769775;-0.240089;-0.909011;-0.066405;-0.334136
28998;2.454912;8.384628;-6.224767;-1.911212;1.714404;2.728702;-0.075928;-0.349365;0.752686;-0.245680;-0.901390;-0.044155;-0.353819
28999;2.446814;6.969258;-5.870755;-2.014623;1.812585;3.019980;-0.116699;-0.368896;0.733643;-0.251071;-0.892488;-0.018879;-0.374261
29000;2.673481;5.822359;-5.382038;-1.727760;1.944374;3.253626;-0.163818;-0.383057;0.725586;-0.253297;-0.882763;0.006903;-0.395630
29001;2.868979;5.317093;-4.885793;-1.402899;2.055063;3.557667;-0.206055;-0.384277;0.705078;-0.251801;-0.872228;0.033483;-0.417963
29002;3.320897;4.975693;-4.466226;-0.935232;2.146058;3.790346;-0.270264;-0.382812;0.688721;-0.245795;-0.861123;0.059868;-0.440985
29003;3.676790;5.375997;-4.088564;-0.480726;2.288406;3.905815;-0.319092;-0.369141;0.675781;-0.235841;-0.849140;0.085066;-0.464870
29004;3.635185;6.062387;-4.129607;-0.309790;2.413610;3.997638;-0.375488;-0.354004;0.663818;-0.224065;-0.835685;0.109848;-0.489242
29005;3.768335;6.554191;-4.880156;-0.294664;2.587551;3.896778;-0.417969;-0.335693;0.636230;-0.212418;-0.820364;0.133360;-0.513904
29006;4.155235;5.645595;-5.259154;-0.245368;2.742664;3.761640;-0.454346;-0.302490;0.614014;-0.200867;-0.803367;0.155246;-0.538658
29007;6.091731;4.093385;-5.854467;-0.326313;2.926562;3.668290;-0.512695;-0.273438;0.583984;-0.190208;-0.784307;0.176312;-0.563558
29008;8.351578;2.293044;-5.745091;-0.424694;3.043226;3.616863;-0.562744;-0.248779;0.561768;-0.180313;-0.763398;0.197040;-0.588121
29009;7.617541;-0.686834;1.092246;-0.430410;2.929249;3.550648;-0.597168;-0.215576;0.530762;-0.170319;-0.741982;0.217245;-0.610949
29010;9.550229;-1.054296;-0.813938;0.257007;2.742362;3.194566;-0.635742;-0.185059;0.500977;-0.157319;-0.722124;0.231717;-0.632531
29011;11.378562;-0.934031;-0.354207;1.042465;2.764692;2.623303;-0.660156;-0.148682;0.473145;-0.142468;-0.703438;0.238312;-0.654282
29012;10.117146;-2.540033;2.404788;1.489641;2.352834;1.909035;-0.684082;-0.110352;0.454346;-0.127938;-0.688285;0.238546;-0.673047
29013;9.155532;-2.565789;2.160056;1.437876;1.652908;0.726359;-0.699707;-0.093018;0.430420;-0.118872;-0.678949;0.232894;-0.686045
29014;7.445025;-1.435565;2.677549;0.959015;0.911712;-0.352890;-0.697754;-0.090576;0.423340;-0.117218;-0.675298;0.224546;-0.692684
29015;7.072868;-0.292277;2.442556;0.325067;0.057316;-1.220212;-0.697266;-0.104004;0.424072;-0.122526;-0.677503;0.215781;-0.692399
29016;7.512315;1.338725;-1.148616;-0.237921;-0.751599;-2.021207;-0.691895;-0.129395;0.432617;-0.134150;-0.685092;0.206516;-0.685568
29017;10.838323;3.633982;-7.476218;-1.074637;-1.067754;-2.102614;-0.683838;-0.157471;0.447266;-0.150417;-0.693424;0.201833;-0.675130
29018;18.416727;-2.909333;-10.624356;-1.987890;-0.784559;-0.680224;-0.672852;-0.176758;0.444336;-0.164374;-0.696349;0.210068;-0.666296
29019;20.278420;-6.794638;-2.625737;-3.225344;-1.674561;0.115717;-0.657471;-0.204346;0.442627;-0.179432;-0.700687;0.230896;-0.650791
29020;10.305820;-1.676505;-7.573878;-3.085633;-2.032631;-0.294130;-0.629639;-0.220703;0.456299;-0.195040;-0.707304;0.248911;-0.632237
29021;1.108020;5.092319;-4.265746;-3.547426;-1.830092;-0.181323;-0.622070;-0.254883;0.466797;-0.212991;-0.711142;0.269454;-0.613438
29022;4.707522;4.454018;-1.433888;-2.323290;-1.387934;-0.816335;-0.604736;-0.288574;0.464355;-0.227749;-0.715729;0.278963;-0.598366
29023;11.403074;5.011317;-2.068016;-0.559956;-0.535105;-1.662215;-0.587891;-0.298096;0.464355;-0.238100;-0.721100;0.272893;-0.590637
29024;12.004892;1.291334;-3.527689;1.321783;-0.010444;-2.234190;-0.575928;-0.304199;0.464600;-0.241066;-0.728674;0.252977;-0.589002
29025;8.730906;1.381717;-4.406833;2.518833;0.362990;-2.207445;-0.560547;-0.311768;0.478516;-0.237269;-0.736308;0.226441;-0.591843
29026;7.215825;2.823076;-4.431376;2.632213;0.219711;-1.922099;-0.556885;-0.307129;0.495361;-0.230919;-0.743775;0.201209;-0.594129
29027;7.374617;6.948155;-2.776819;1.649281;-0.114153;-1.577648;-0.545410;-0.305420;0.501953;-0.228269;-0.750019;0.183509;-0.593034
29028;8.295231;8.573459;-3.403075;0.412318;-0.380373;-1.085897;-0.541016;-0.316406;0.507324;-0.230458;-0.754303;0.175441;-0.589183
29029;7.314846;6.811061;-2.688950;-0.702665;-0.631917;-0.782420;-0.523926;-0.330811;0.508545;-0.237772;-0.757161;0.175200;-0.582646
29030;8.900376;4.863578;-2.417112;-1.234300;-0.716505;-0.541739;-0.518311;-0.332275;0.498535;-0.247117;-0.758927;0.179186;-0.575200
29031;9.902250;2.557800;-2.401123;-0.831930;-0.519355;-0.696390;-0.506592;-0.353027;0.500732;-0.254919;-0.760709;0.179828;-0.569210
29032;9.494043;1.369727;-2.472399;0.024091;-0.255767;-0.972409;-0.502197;-0.360352;0.518555;-0.258978;-0.763408;0.174081;-0.565539
29033;8.915556;2.141036;-2.858033;0.589854;-0.128378;-0.959377;-0.491211;-0.362305;0.504639;-0.259541;-0.766647;0.165465;-0.563482
29034;8.885421;3.483617;-2.973991;0.658853;-0.126250;-0.850206;-0.484863;-0.359375;0.514893;-0.259131;-0.769810;0.157204;-0.561721
29035;8.996449;4.401333;-3.037103;0.358717;-0.216088;-0.736269;-0.468750;-0.365967;0.520996;-0.259979;-0.772546;0.151259;-0.559199
29036;9.009525;3.732101;-2.851786;-0.005153;-0.306214;-0.652715;-0.458252;-0.370361;0.519775;-0.262655;-0.774776;0.147732;-0.555797
29037;9.255337;2.179553;-2.477396;-0.095671;-0.349397;-0.663353;-0.472656;-0.376465;0.513672;-0.265901;-0.776992;0.144640;-0.551960
29038;9.295599;0.865403;-2.273267;0.095442;-0.315989;-0.733887;-0.460938;-0.381104;0.523193;-0.268264;-0.779529;0.140134;-0.548389
29039;9.267715;0.234976;-1.986528;0.469481;-0.260908;-0.876018;-0.442627;-0.388916;0.529785;-0.268895;-0.782771;0.132868;-0.545263
29040;9.135070;0.758215;-1.817184;0.755207;-0.257079;-0.977135;-0.444824;-0.368896;0.529541;-0.268102;-0.786674;0.123630;-0.542200
29041;9.152127;1.397106;-1.781109;0.826623;-0.318989;-1.042560;-0.430176;-0.374512;0.547363;-0.267039;-0.790989;0.113770;-0.538593
29042;9.353057;1.236649;-1.855212;0.783929;-0.387143;-1.084847;-0.416992;-0.382568;0.541504;-0.266349;-0.795450;0.103962;-0.534331
29043;9.234745;1.011995;-1.814818;0.674517;-0.440152;-1.125852;-0.404297;-0.384033;0.564209;-0.266484;-0.799833;0.094477;-0.529460
29044;8.985607;1.183131;-1.538225;0.578191;-0.499315;-1.177035;-0.396484;-0.384766;0.560791;-0.267404;-0.804195;0.085200;-0.523934
29045;8.694266;1.845893;-1.468735;0.444583;-0.561523;-1.188754;-0.375977;-0.381592;0.571777;-0.269191;-0.808430;0.076560;-0.517799
29046;8.918292;2.616526;-1.696675;0.267356;-0.637395;-1.202806;-0.369385;-0.391846;0.585205;-0.272148;-0.812496;0.068751;-0.510939
29047;9.569407;3.349214;-2.430292;0.091299;-0.742587;-1.234846;-0.331055;-0.397949;0.579834;-0.276334;-0.816516;0.061706;-0.503124
29048;10.143744;3.186567;-3.232776;-0.047103;-0.878817;-1.263555;-0.335693;-0.409180;0.577881;-0.281470;-0.820676;0.055350;-0.494168
29049;9.961837;1.067480;-3.051450;-0.223459;-0.998225;-1.255922;-0.310547;-0.412354;0.573975;-0.287676;-0.824769;0.050046;-0.484245
29050;9.689220;-0.716376;-2.027066;-0.452472;-1.161315;-1.214030;-0.282471;-0.421631;0.580078;-0.295162;-0.828793;0.046346;-0.473111
29051;11.735430;-1.032361;-2.403079;-0.365334;-1.260445;-1.308586;-0.264404;-0.435303;0.583008;-0.302313;-0.833273;0.041897;-0.460985
29052;14.130663;-3.073029;-1.686032;0.163347;-1.319445;-1.566011;-0.242432;-0.436035;0.585205;-0.306678;-0.839182;0.033784;-0.447862
29053;15.018294;-4.482881;-0.512469;0.842338;-1.400806;-1.914607;-0.208252;-0.430420;0.602539;-0.307458;-0.846923;0.020921;-0.433305
29054;15.531513;-5.303172;-0.128353;1.514635;-1.590908;-2.169800;-0.176025;-0.412354;0.620361;-0.304207;-0.856654;0.004334;-0.416633
29055;17.873898;-10.753248;0.530765;2.265784;-1.831009;-2.472988;-0.136230;-0.397705;0.634033;-0.296376;-0.868421;-0.016387;-0.397161
29056;16.494516;-11.491367;0.393894;2.775604;-1.476398;-2.636912;-0.104248;-0.374023;0.656738;-0.285017;-0.879314;-0.040788;-0.379353
29057;11.172864;-2.345825;0.668930;2.971925;-1.436261;-2.481679;-0.070801;-0.345459;0.666016;-0.271367;-0.889578;-0.064669;-0.361703
29058;10.629315;6.435119;-1.119529;2.493349;-1.803163;-1.977830;-0.031250;-0.303223;0.678711;-0.259646;-0.899207;-0.082459;-0.342362
29059;12.409949;11.033857;-7.416840;2.012461;-2.010823;-1.583031;-0.002441;-0.283691;0.676270;-0.250321;-0.907914;-0.095410;-0.322379
29060;12.108284;11.650105;-11.544987;1.407617;-1.421945;-1.214279;0.026123;-0.255371;0.683350;-0.243968;-0.913568;-0.105132;-0.307930
29061;10.335956;7.980693;-11.649395;0.448634;-1.181389;-0.961451;0.043213;-0.256592;0.680664;-0.243985;-0.916625;-0.110936;-0.296587
29062;8.801777;5.731098;-11.763532;-0.059913;-1.300332;-0.741304;0.064697;-0.251709;0.675537;-0.247408;-0.918998;-0.113540;-0.285204
29063;6.319214;7.389405;-13.948093;0.649266;-0.654928;-0.500542;0.085205;-0.244141;0.676025;-0.244183;-0.921424;-0.117296;-0.278557
29064;4.450329;7.667197;-11.511786;1.299203;-0.340860;-0.019484;0.091553;-0.241943;0.684082;-0.234516;-0.924823;-0.119493;-0.274638
29065;3.951443;9.636083;-10.605728;1.221274;0.330955;0.557237;0.097412;-0.218018;0.682617;-0.223432;-0.926984;-0.118369;-0.277070
29066;2.502799;10.584225;-10.521886;0.650577;1.173501;0.931880;0.079102;-0.205566;0.687988;-0.215030;-0.926352;-0.114595;-0.287231
29067;0.779825;10.182164;-10.123584;-0.282464;1.766479;1.305767;0.059326;-0.228027;0.692139;-0.212323;-0.922734;-0.106753;-0.303454
29068;-0.559857;8.739367;-9.123400;-1.129830;2.185291;1.770329;0.024170;-0.215820;0.694580;-0.214491;-0.916511;-0.093904;-0.324320
29069;-1.058933;7.275491;-7.965698;-1.594721;2.561367;2.215433;-0.011963;-0.258301;0.689453;-0.218549;-0.908042;-0.077015;-0.348948
29070;-1.271287;6.477953;-7.076623;-1.919075;2.810503;2.548057;-0.050537;-0.270996;0.673340;-0.223700;-0.897451;-0.057051;-0.375878
29071;-1.305320;6.194392;-6.135754;-1.956496;2.895558;2.801997;-0.097900;-0.301270;0.667725;-0.228008;-0.885449;-0.035167;-0.403430
29072;-1.286788;4.697045;-4.343387;-1.639059;2.837037;3.049307;-0.145752;-0.309814;0.649902;-0.228849;-0.873078;-0.012381;-0.430360
29073;-0.682350;4.145003;-3.559611;-0.923077;2.904930;3.425659;-0.193359;-0.315186;0.639160;-0.222806;-0.860616;0.010452;-0.457809
29074;0.309645;4.538762;-2.668278;-0.094379;3.078872;3.738727;-0.243408;-0.300781;0.625488;-0.209303;-0.847665;0.032018;-0.486448
29075;0.879264;6.191201;-2.758966;0.465604;3.324104;3.901866;-0.294922;-0.279785;0.620117;-0.190892;-0.833176;0.051971;-0.516408
29076;1.311232;7.904184;-4.345654;0.636210;3.500946;4.014045;-0.358398;-0.246826;0.614014;-0.170530;-0.816545;0.071568;-0.546856
29077;3.173833;8.952786;-7.102903;0.254696;3.737542;3.722101;-0.401123;-0.227295;0.583740;-0.153900;-0.796859;0.090418;-0.577196
29078;4.544419;6.003926;-2.461572;-0.629196;3.610656;3.682396;-0.449951;-0.212891;0.558350;-0.142940;-0.775161;0.113221;-0.604876
29079;6.186879;2.675850;-2.535795;-1.451676;2.774145;4.405839;-0.480713;-0.190430;0.534424;-0.132576;-0.754504;0.145597;-0.626059
29080;7.612586;0.844991;-3.248781;-1.778016;2.406515;4.487557;-0.529785;-0.170654;0.512695;-0.123121;-0.733776;0.180293;-0.643357
29081;10.477264;-3.346502;-2.131948;-1.775797;1.972395;4.011006;-0.545410;-0.149902;0.489746;-0.115329;-0.714762;0.212183;-0.656348
29082;12.280959;-4.185708;-1.409566;-1.166658;1.379527;3.171085;-0.574219;-0.127686;0.476807;-0.107310;-0.700151;0.236053;-0.665246
29083;11.139045;-6.512795;2.743060;-0.366263;0.953680;1.574372;-0.574463;-0.123047;0.471191;-0.102572;-0.691342;0.246423;-0.671417
29084;9.105677;-7.049945;4.616380;-0.003115;0.351562;-0.157540;-0.579590;-0.121826;0.464844;-0.104183;-0.689677;0.245274;-0.673299
29085;7.697133;-2.812033;2.155937;0.346544;-0.250316;-1.589652;-0.580078;-0.131836;0.475830;-0.110581;-0.694548;0.234441;-0.671128
29086;8.157859;1.421274;-4.851656;0.283375;-0.790099;-2.641935;-0.559570;-0.155518;0.476807;-0.122134;-0.704184;0.218285;-0.664500
29087;18.271138;-1.238586;-14.464067;-0.276689;-0.798361;-2.095475;-0.550293;-0.174805;0.477051;-0.133878;-0.711994;0.208347;-0.657064
29088;21.752450;-10.895843;-2.970580;-0.956901;-0.835005;-0.395584;-0.543213;-0.190430;0.496094;-0.140259;-0.716128;0.212225;-0.649961
29089;13.730075;-2.388560;-2.273091;-0.829578;-1.491123;-1.298899;-0.519287;-0.216553;0.504395;-0.149584;-0.725398;0.210772;-0.637963
29090;3.505418;9.153314;-3.008982;-1.986895;-1.428112;-0.858605;-0.507568;-0.240234;0.505859;-0.163614;-0.731833;0.217976;-0.624609
29091;2.533132;9.226246;-3.496647;-1.937231;-1.454455;-0.832457;-0.486084;-0.257812;0.502686;-0.177076;-0.738094;0.224992;-0.610933
29092;6.354913;8.756999;-3.013642;-1.599767;-1.034075;-1.157370;-0.471191;-0.281494;0.517578;-0.190831;-0.743033;0.227558;-0.599753
29093;11.882229;5.363918;-3.348000;-0.769357;-0.588167;-1.662612;-0.462402;-0.310791;0.521240;-0.202754;-0.747804;0.222044;-0.591926
29094;11.451471;2.229841;-4.554544;0.404592;-0.096286;-1.734283;-0.451172;-0.319092;0.508545;-0.208577;-0.752089;0.209396;-0.589076
29095;8.221034;1.122787;-4.230936;1.484413;0.020214;-1.814577;-0.435547;-0.308838;0.518066;-0.208167;-0.757594;0.190678;-0.588523
29096;7.071676;5.164306;-4.676581;1.816765;-0.039164;-1.754777;-0.434814;-0.300781;0.523926;-0.205186;-0.763561;0.170735;-0.587983
29097;7.409460;7.180110;-4.563627;1.216209;-0.222219;-1.517231;-0.421631;-0.309570;0.538330;-0.204528;-0.768791;0.155488;-0.585621
29098;7.389899;7.385367;-3.296696;0.055790;-0.447225;-1.166822;-0.409668;-0.316162;0.541992;-0.209264;-0.772546;0.148489;-0.580803
29099;8.275197;6.190580;-3.591752;-0.889355;-0.671140;-0.702886;-0.402100;-0.340576;0.542480;-0.217538;-0.775076;0.149406;-0.574119
29100;9.460443;4.708455;-3.745771;-0.977089;-0.619987;-0.582723;-0.381104;-0.337158;0.540039;-0.225841;-0.776962;0.151397;-0.567807
29101;9.551531;3.598563;-3.202290;-0.322424;-0.367190;-0.810039;-0.383789;-0.354248;0.546631;-0.231280;-0.779102;0.148322;-0.563481
29102;9.298389;2.976207;-2.934797;0.189890;-0.162557;-0.833009;-0.374756;-0.356445;0.549561;-0.233741;-0.781252;0.142285;-0.561040
29103;8.809549;3.103308;-3.202782;0.521316;-0.043844;-0.735323;-0.363037;-0.357666;0.549805;-0.233715;-0.783333;0.135093;-0.559925
29104;8.755932;3.587327;-3.446263;0.449785;-0.062712;-0.653652;-0.368164;-0.344727;0.547119;-0.233742;-0.785232;0.128796;-0.558737
29105;8.924691;3.857388;-3.420903;0.146683;-0.159515;-0.573065;-0.358154;-0.362549;0.551514;-0.235265;-0.786877;0.124619;-0.556727
29106;8.969001;3.263899;-3.241864;-0.069188;-0.224447;-0.544860;-0.356445;-0.357666;0.541504;-0.238000;-0.788351;0.121749;-0.554108
29107;8.967487;2.451388;-2.726332;-0.079992;-0.259038;-0.572571;-0.342529;-0.361084;0.558350;-0.240893;-0.789970;0.118810;-0.551182
29108;9.137430;1.638806;-2.494098;0.084160;-0.258255;-0.669911;-0.339844;-0.365234;0.551514;-0.243146;-0.791986;0.114471;-0.548210
29109;9.450070;1.005207;-2.342659;0.313137;-0.242959;-0.810959;-0.329834;-0.367676;0.567383;-0.244536;-0.794493;0.108122;-0.545246
29110;9.420654;0.744447;-2.001393;0.470641;-0.261259;-0.897310;-0.329834;-0.368652;0.565674;-0.245243;-0.797427;0.100520;-0.542090
29111;9.198820;1.207469;-1.624621;0.516205;-0.329380;-0.916802;-0.325195;-0.374512;0.567627;-0.245659;-0.800714;0.092720;-0.538435
29112;8.984332;1.106041;-1.711172;0.528734;-0.406847;-0.931389;-0.313477;-0.361084;0.580566;-0.245976;-0.804313;0.084919;-0.534196
29113;9.381477;0.845740;-2.121129;0.585810;-0.448775;-1.025801;-0.303223;-0.370361;0.584717;-0.246276;-0.808200;0.076314;-0.529468
29114;9.853970;0.472095;-2.334520;0.643632;-0.501175;-1.144208;-0.286621;-0.359131;0.586914;-0.246647;-0.812411;0.066760;-0.524115
29115;9.531431;-1.206883;-1.653820;0.531896;-0.608150;-1.243248;-0.271484;-0.377197;0.588379;-0.248112;-0.816797;0.057241;-0.517694
29116;8.421625;-1.181320;-0.030288;0.117518;-0.786627;-1.188624;-0.249756;-0.371338;0.598145;-0.252040;-0.820948;0.050256;-0.509897
29117;9.805167;-0.084970;-0.285929;-0.242709;-0.958710;-1.155116;-0.239990;-0.371826;0.601318;-0.258181;-0.824934;0.045393;-0.500766
29118;12.051791;-0.755305;0.543840;-0.377924;-1.148477;-1.229431;-0.219727;-0.386963;0.600098;-0.265442;-0.829297;0.040993;-0.490027
29119;13.206356;-1.837123;0.744115;-0.174799;-1.320086;-1.435558;-0.198486;-0.394287;0.601318;-0.272020;-0.834683;0.034719;-0.477602
29120;13.449507;-1.873840;0.255386;0.209144;-1.463635;-1.631139;-0.164795;-0.393555;0.605225;-0.276581;-0.841315;0.025888;-0.463704
29121;13.943410;-1.573127;-0.043411;0.499981;-1.620859;-1.808650;-0.134277;-0.390869;0.619873;-0.279650;-0.848943;0.015059;-0.448181
29122;14.410473;-3.671982;-2.137896;0.798570;-1.839574;-1.969137;-0.102051;-0.390137;0.626221;-0.281039;-0.857690;0.002499;-0.430557
29123;14.354561;-6.995854;-0.655148;1.092254;-2.003908;-2.128007;-0.071777;-0.376953;0.630371;-0.280721;-0.867195;-0.011840;-0.411130
29124;15.647174;-8.154094;0.292255;1.637855;-2.092363;-2.198512;-0.030762;-0.357422;0.644775;-0.276493;-0.877628;-0.028306;-0.390538
29125;15.574691;-6.828425;1.202523;2.046012;-1.720285;-2.270199;0.008789;-0.339844;0.661621;-0.269187;-0.887043;-0.047419;-0.372081
29126;11.585527;1.543054;-0.315474;2.328144;-1.637260;-2.115026;0.037842;-0.310059;0.666504;-0.259040;-0.896138;-0.066372;-0.354161
29127;10.828375;7.433534;-3.640218;2.105058;-1.930084;-1.834428;0.071777;-0.283691;0.678711;-0.249670;-0.905027;-0.081876;-0.334497
29128;11.125448;10.548833;-9.872885;1.832396;-1.976312;-1.714975;0.102051;-0.256592;0.677002;-0.241862;-0.912879;-0.095569;-0.314676
29129;10.687426;10.082925;-11.988653;1.307911;-1.435387;-1.340924;0.129883;-0.239258;0.689453;-0.236496;-0.918058;-0.106087;-0.299975
29130;9.024063;6.819661;-11.397607;0.646769;-1.315926;-1.017467;0.142822;-0.228271;0.682861;-0.235199;-0.921645;-0.112685;-0.287323
29131;7.790989;6.556782;-11.761833;0.369786;-1.286515;-0.673038;0.170654;-0.228516;0.682373;-0.235128;-0.924772;-0.116009;-0.275778
29132;5.268561;7.774258;-12.648478;0.835913;-0.451583;-0.359764;0.177246;-0.206055;0.681396;-0.229909;-0.927093;-0.119611;-0.270801
29133;3.510002;8.259096;-10.304058;1.086810;-0.168492;0.162530;0.180664;-0.202393;0.688965;-0.221272;-0.929704;-0.120280;-0.268742
29134;3.489144;10.121483;-9.905240;0.825847;0.373671;0.742569;0.164795;-0.204346;0.692627;-0.212796;-0.931113;-0.116869;-0.272192
29135;2.327187;11.095265;-10.456225;0.136315;1.243196;1.155014;0.137451;-0.205078;0.702881;-0.207863;-0.929584;-0.110233;-0.283752
29136;0.461885;10.497637;-10.497644;-0.745897;1.834590;1.515108;0.124268;-0.219238;0.703857;-0.208309;-0.925158;-0.099730;-0.301237
29137;-0.757074;8.939408;-9.878244;-1.525893;2.158096;1.977704;0.094971;-0.247314;0.713379;-0.213223;-0.918394;-0.084225;-0.322482
29138;-1.166871;7.258257;-8.734122;-1.910126;2.502549;2.412105;0.055420;-0.272461;0.709717;-0.219476;-0.909471;-0.064917;-0.347100
29139;-1.526501;6.188375;-7.730525;-2.105657;2.763446;2.763264;0.001709;-0.310791;0.704102;-0.225788;-0.898502;-0.042794;-0.374009
29140;-2.029118;5.486655;-6.596685;-1.898576;2.845257;3.039177;-0.051025;-0.329834;0.687500;-0.229346;-0.886493;-0.019357;-0.401442
29141;-2.017002;4.493691;-5.592321;-1.299485;2.921833;3.245694;-0.096436;-0.343750;0.681885;-0.227447;-0.874118;0.003472;-0.429153
29142;-1.734275;4.530047;-4.785476;-0.477198;3.115140;3.528120;-0.161133;-0.344238;0.671631;-0.218217;-0.861290;0.025036;-0.458185
29143;-1.058315;5.000443;-4.133585;0.090231;3.380593;3.754020;-0.220215;-0.340332;0.665527;-0.203748;-0.846999;0.045520;-0.488884
29144;-0.598814;6.631648;-4.776317;0.388274;3.655338;3.921127;-0.284180;-0.317627;0.654053;-0.186216;-0.830429;0.065403;-0.520993
29145;0.016239;8.333508;-6.693934;0.315019;3.864637;4.046991;-0.354736;-0.293701;0.640381;-0.168369;-0.811031;0.085996;-0.553611
29146;2.850979;8.874389;-6.540678;-0.167229;4.161782;3.758474;-0.416748;-0.291992;0.610352;-0.154954;-0.788024;0.106239;-0.586277
29147;4.823791;4.851989;-1.990781;-0.986496;3.638058;3.891045;-0.468994;-0.266113;0.582520;-0.145474;-0.764740;0.131785;-0.613712
29148;9.243001;0.780036;-2.155229;-1.444705;2.824582;4.426243;-0.520508;-0.239014;0.561768;-0.134983;-0.742909;0.163787;-0.634855
29149;9.502600;-2.392336;-2.010240;-1.483574;2.437470;4.379589;-0.559326;-0.214844;0.526855;-0.124180;-0.721677;0.195818;-0.652240
29150;11.110933;-5.537765;-1.474721;-1.320712;1.880863;3.901338;-0.585938;-0.201172;0.515137;-0.113881;-0.703220;0.224349;-0.664967
29151;10.989201;-4.215674;0.123825;-0.710842;1.312159;2.734216;-0.602783;-0.174561;0.501221;-0.105293;-0.689932;0.242984;-0.673696
29152;8.886637;-6.909980;4.440824;-0.536170;0.599317;0.997316;-0.610107;-0.170166;0.488770;-0.103967;-0.684042;0.251189;-0.676891
29153;8.887938;-7.417468;5.189117;-0.385657;-0.158998;-0.610922;-0.613037;-0.183105;0.498779;-0.109260;-0.685870;0.250025;-0.674635
29154;7.611193;-2.690921;0.527511;0.052197;-0.800994;-1.985420;-0.603271;-0.206543;0.504395;-0.118421;-0.694442;0.239091;-0.668253
29155;12.064548;-0.986269;-10.910804;0.386916;-0.965652;-2.695728;-0.586182;-0.232666;0.516113;-0.129220;-0.705363;0.222243;-0.660585
29156;20.897138;-5.546811;-5.780280;-0.117510;-0.158910;-1.267678;-0.576660;-0.231689;0.512207;-0.136577;-0.708414;0.215628;-0.658028
29157;19.763170;-2.003193;-0.953812;-0.325809;-0.672314;-0.931795;-0.571289;-0.245361;0.528809;-0.142387;-0.713364;0.212715;-0.652373
29158;12.768618;-0.013631;-1.341033;-0.747349;-1.260781;-1.287933;-0.559570;-0.275879;0.534668;-0.151569;-0.721514;0.210635;-0.641933
29159;3.844981;8.190893;-3.297868;-1.394053;-1.400419;-1.050234;-0.546875;-0.300781;0.540039;-0.163076;-0.728956;0.213553;-0.629622
29160;2.190671;8.769611;-2.899256;-1.895219;-1.367412;-0.882099;-0.523926;-0.321289;0.535645;-0.176736;-0.734966;0.219974;-0.616604
29161;7.215219;10.534837;-4.527221;-2.016139;-1.050699;-1.211867;-0.515625;-0.348389;0.527344;-0.193330;-0.739452;0.224409;-0.604545
29162;11.203307;5.342655;-5.234935;-1.173377;-0.835380;-1.647242;-0.493164;-0.362793;0.533447;-0.207250;-0.744737;0.221456;-0.594450
29163;9.554861;0.128596;-4.650872;0.255363;-0.330311;-1.806066;-0.480713;-0.388428;0.544434;-0.213963;-0.750071;0.209495;-0.589683
29164;7.723549;1.157694;-5.043064;1.574414;0.027478;-1.762613;-0.475342;-0.385254;0.546875;-0.212777;-0.755686;0.190626;-0.589344
29165;7.499935;4.158261;-4.465673;1.851239;0.110022;-1.496175;-0.462158;-0.375977;0.561768;-0.208587;-0.760667;0.171859;-0.590204
29166;7.371595;6.754850;-3.106072;0.727571;-0.247807;-1.060264;-0.460205;-0.377930;0.568115;-0.208810;-0.764638;0.161952;-0.587792
29167;8.217107;7.942986;-2.953084;-0.605594;-0.616346;-0.768806;-0.447510;-0.389160;0.571045;-0.215580;-0.767621;0.161042;-0.581678
29168;9.039362;6.445074;-2.662728;-1.203163;-0.698369;-0.741030;-0.444336;-0.414062;0.563477;-0.225899;-0.769790;0.163314;-0.574213
29169;10.419798;2.698380;-1.989484;-1.034108;-0.559933;-0.727781;-0.424072;-0.432617;0.568604;-0.235224;-0.771481;0.164563;-0.567808
29170;9.777930;0.444684;-2.395035;-0.326956;-0.335778;-0.805082;-0.414551;-0.431885;0.568604;-0.240654;-0.773528;0.161510;-0.563609
29171;8.814392;1.045041;-3.381757;0.507823;-0.158375;-0.874909;-0.404541;-0.442139;0.566406;-0.241255;-0.776456;0.153725;-0.561498
29172;8.415120;2.744875;-3.468866;0.840043;-0.073415;-0.877156;-0.404541;-0.426025;0.574463;-0.239805;-0.779589;0.144190;-0.560307
29173;9.031512;4.352070;-3.184996;0.653694;-0.122569;-0.788659;-0.404785;-0.439209;0.581787;-0.239072;-0.782403;0.136186;-0.558699
29174;9.157401;4.415693;-2.828009;0.215372;-0.214444;-0.638308;-0.382568;-0.434326;0.586182;-0.240380;-0.784558;0.131373;-0.556263
29175;9.090003;3.066330;-2.589143;-0.172447;-0.293793;-0.576959;-0.387451;-0.442139;0.585205;-0.243845;-0.786210;0.128907;-0.552989
29176;8.991530;1.901715;-2.615607;-0.238565;-0.318285;-0.569959;-0.372803;-0.449707;0.587891;-0.247677;-0.787807;0.126836;-0.549480
29177;8.894123;1.577827;-2.524062;-0.059134;-0.328973;-0.613269;-0.366211;-0.446045;0.591064;-0.250510;-0.789842;0.123679;-0.545983
29178;8.873403;1.743419;-2.461763;0.176471;-0.336287;-0.714706;-0.357666;-0.460938;0.588867;-0.252237;-0.792474;0.118795;-0.542447
29179;8.972675;2.012943;-2.563555;0.327188;-0.352858;-0.822009;-0.350586;-0.454346;0.588867;-0.253425;-0.795560;0.112552;-0.538695
29180;8.915634;2.280789;-2.705445;0.406097;-0.358912;-0.864347;-0.335693;-0.458984;0.599365;-0.254257;-0.798824;0.105682;-0.534850
29181;8.761580;2.519497;-2.989717;0.445948;-0.376066;-0.853327;-0.333008;-0.458984;0.604980;-0.254742;-0.802180;0.098737;-0.530910
29182;8.585293;2.667826;-3.162693;0.472289;-0.392527;-0.854860;-0.318604;-0.463135;0.609131;-0.255026;-0.805603;0.091695;-0.526837
29183;8.605067;3.072422;-3.432743;0.479845;-0.411819;-0.894801;-0.308105;-0.451660;0.610352;-0.255399;-0.809093;0.084386;-0.522512
29184;8.987956;3.327261;-3.604839;0.399645;-0.439926;-0.907478;-0.295410;-0.463135;0.618652;-0.256329;-0.812475;0.077395;-0.517870
29185;9.290042;2.008993;-2.949736;0.225772;-0.501079;-0.914933;-0.282715;-0.461426;0.635742;-0.258408;-0.815689;0.071230;-0.512644
29186;8.886151;-0.362976;-0.640052;-0.100229;-0.648005;-0.896919;-0.273193;-0.460938;0.630615;-0.262518;-0.818748;0.066894;-0.506222
29187;9.063484;0.015776;-0.044475;-0.360620;-0.840332;-0.866767;-0.255859;-0.476807;0.624268;-0.268146;-0.821951;0.064284;-0.498359
29188;10.894295;-0.347189;0.205513;-0.299163;-0.943326;-0.983917;-0.244141;-0.476562;0.630127;-0.273753;-0.825678;0.060847;-0.489503
29189;11.920220;-0.965592;0.475968;0.010626;-1.047540;-1.194795;-0.226074;-0.477295;0.641846;-0.277993;-0.830514;0.054932;-0.479530
29190;12.106489;-0.785860;0.017774;0.482570;-1.143391;-1.422499;-0.192871;-0.487793;0.644531;-0.279776;-0.836752;0.045777;-0.468483
29191;11.777396;-0.607706;-0.969860;0.828150;-1.245736;-1.593632;-0.174316;-0.487549;0.656738;-0.279697;-0.844016;0.034318;-0.456321
29192;11.641567;0.453933;0.059736;0.970191;-1.388015;-1.699308;-0.146729;-0.483643;0.660645;-0.278879;-0.851873;0.021908;-0.442786
29193;13.344552;-0.264458;-2.223234;1.134242;-1.575420;-1.751709;-0.107666;-0.470703;0.679932;-0.276933;-0.860438;0.008956;-0.427638
29194;15.374096;-3.903423;0.392311;1.377378;-1.850828;-1.946267;-0.082764;-0.464355;0.695801;-0.273763;-0.870084;-0.005610;-0.409849
29195;16.930975;-8.143410;-1.345967;1.766734;-1.869252;-2.184000;-0.045898;-0.435303;0.705322;-0.268387;-0.880051;-0.023156;-0.391078
29196;13.638453;-4.808350;-0.750818;2.006400;-1.582163;-2.103040;-0.014648;-0.416504;0.716797;-0.260720;-0.888958;-0.041473;-0.374245
29197;10.245770;-0.372222;-0.726656;2.165843;-1.451905;-1.882884;0.017090;-0.396484;0.747803;-0.250943;-0.897228;-0.058880;-0.358528
29198;9.041865;4.894092;-3.766721;1.864580;-1.604889;-1.499030;0.045410;-0.369141;0.747559;-0.242181;-0.904937;-0.072148;-0.342391
29199;9.765734;7.916451;-9.404556;1.707556;-1.575791;-1.212560;0.064941;-0.356689;0.769531;-0.233638;-0.911944;-0.082829;-0.326972
29200;10.250243;7.981581;-10.705731;1.220664;-1.307458;-1.054150;0.088623;-0.332031;0.772217;-0.228085;-0.917029;-0.091473;-0.314113
29201;9.175118;6.453038;-10.432162;0.602051;-1.194160;-0.998053;0.108887;-0.330811;0.772949;-0.226968;-0.920461;-0.098262;-0.302623
29202;7.517573;7.061753;-12.046303;0.455565;-0.977637;-0.936171;0.118652;-0.321289;0.780518;-0.226602;-0.922969;-0.104598;-0.292982
29203;4.524948;7.594968;-11.617710;0.667821;-0.646177;-0.716504;0.126953;-0.314209;0.782715;-0.223750;-0.925153;-0.110377;-0.286085
29204;3.517087;7.465016;-9.925973;0.655174;-0.432844;-0.178738;0.136963;-0.312744;0.778809;-0.219501;-0.927235;-0.112375;-0.281827
29205;3.299489;8.222724;-9.817969;0.586069;0.237630;0.316094;0.119629;-0.296875;0.790771;-0.213988;-0.928041;-0.111617;-0.283709
29206;2.468586;8.907251;-10.130579;0.082529;0.983641;0.686682;0.105957;-0.294434;0.789795;-0.210789;-0.926464;-0.108136;-0.292470
29207;1.080537;9.032813;-10.136221;-0.748950;1.652589;1.119447;0.068604;-0.308105;0.788086;-0.212311;-0.921991;-0.100453;-0.307842
29208;0.045104;8.872938;-9.678781;-1.543444;2.034183;1.600804;0.031250;-0.330078;0.780518;-0.218287;-0.915095;-0.087678;-0.327512
29209;-0.000571;8.474383;-7.993532;-2.135344;2.208279;2.086989;-0.005615;-0.369141;0.776123;-0.227152;-0.906273;-0.069844;-0.349562
29210;0.151243;7.192807;-6.940340;-2.187313;2.371179;2.407214;-0.065918;-0.392090;0.771729;-0.235147;-0.896117;-0.049694;-0.373110
29211;0.760091;5.814520;-6.203848;-1.622936;2.541311;2.601712;-0.113037;-0.413818;0.738525;-0.237993;-0.885618;-0.030138;-0.397658
29212;1.052769;4.949859;-5.365277;-0.906092;2.835960;2.746270;-0.168457;-0.419922;0.732178;-0.234731;-0.874607;-0.012451;-0.424039
29213;1.245444;5.193342;-4.453184;-0.593694;3.030828;2.935044;-0.225586;-0.421631;0.721191;-0.228223;-0.862488;0.005133;-0.451666
29214;1.894073;5.670080;-4.250121;-0.298848;3.204006;3.034749;-0.298584;-0.412354;0.698486;-0.218929;-0.849145;0.021978;-0.480146
29215;2.659162;5.613389;-4.834025;-0.126489;3.334467;3.038551;-0.358154;-0.391846;0.685547;-0.208119;-0.834417;0.037880;-0.508921
29216;3.446588;5.599658;-6.151759;-0.043788;3.569474;3.016067;-0.415039;-0.364746;0.665283;-0.196597;-0.817622;0.052801;-0.538569
29217;4.075135;5.422733;-6.045512;0.377324;3.851985;2.783729;-0.479492;-0.349854;0.645020;-0.183065;-0.799089;0.063696;-0.569110
29218;6.093242;3.166809;-2.602206;0.645044;3.980624;2.627000;-0.537109;-0.318359;0.607178;-0.168267;-0.779169;0.071972;-0.599502
29219;9.081421;1.455293;-1.781510;1.328033;3.914286;2.392264;-0.593750;-0.289551;0.576904;-0.149894;-0.759436;0.075288;-0.628586
29220;10.289771;-0.457726;-0.642809;2.685029;3.824578;1.527547;-0.628418;-0.246338;0.558838;-0.127160;-0.741174;0.066015;-0.655845
29221;9.893101;-2.150476;-0.173462;4.249772;3.616090;0.453991;-0.668945;-0.200684;0.531738;-0.100270;-0.724872;0.041666;-0.680273
29222;8.566097;-1.324077;-1.791457;5.842105;3.358717;-0.667248;-0.697998;-0.153320;0.507812;-0.069765;-0.709806;0.001643;-0.700932
29223;6.805569;-0.303991;-3.306689;6.597966;2.806988;-1.561172;-0.717285;-0.120117;0.482178;-0.039764;-0.695957;-0.047750;-0.715390
29224;5.053790;1.045044;-4.207286;6.346706;1.914539;-2.178789;-0.726807;-0.082764;0.471191;-0.015110;-0.684619;-0.098759;-0.722021
29225;4.901129;4.350369;-0.980014;4.596842;0.835021;-2.028788;-0.730713;-0.077637;0.471191;-0.000374;-0.677902;-0.138012;-0.722081
29226;5.447983;8.694024;-5.616897;1.578896;-0.717169;-1.299930;-0.728027;-0.078613;0.484375;-0.000077;-0.680629;-0.154857;-0.716076
29227;6.750355;10.838488;-10.345797;-1.753368;-1.893822;-0.168697;-0.710449;-0.093750;0.508545;-0.013441;-0.691563;-0.145367;-0.707410
29228;14.912923;6.712158;-9.518932;-4.891877;-2.052083;1.086072;-0.703857;-0.125244;0.519043;-0.037655;-0.703732;-0.109995;-0.700888
29229;33.136262;0.568116;-4.146665;-6.026313;-1.484904;1.748934;-0.685303;-0.153809;0.518555;-0.064033;-0.711115;-0.064045;-0.697218
29230;12.795476;-7.772744;-3.360848;-3.515518;-1.696887;-0.145145;-0.668945;-0.186523;0.524902;-0.086540;-0.718664;-0.043634;-0.688571
29231;3.354850;-6.394099;-3.986597;-0.170599;-1.042369;-1.107353;-0.660156;-0.202637;0.539062;-0.094259;-0.724083;-0.048590;-0.681512
29232;0.613209;0.064050;-5.228314;1.561194;-0.106740;-1.108297;-0.660889;-0.207275;0.533203;-0.091140;-0.725399;-0.064090;-0.679251
29233;8.875777;5.446701;-2.734734;1.818654;-0.039596;-1.384761;-0.655518;-0.193848;0.554443;-0.087964;-0.726160;-0.082749;-0.676836
29234;14.692415;8.990619;-0.639832;1.546586;-0.223043;-0.933089;-0.645020;-0.190918;0.557373;-0.083985;-0.727851;-0.096993;-0.673626
29235;8.358521;7.371840;-1.276148;0.853735;-0.291318;-0.757607;-0.636963;-0.193359;0.563477;-0.083260;-0.729460;-0.106234;-0.670574
29236;8.442730;6.218020;-4.330606;0.591928;-0.183238;-0.550420;-0.636963;-0.186768;0.561523;-0.082865;-0.730412;-0.112836;-0.668506
29237;7.249157;4.947748;-5.392584;0.730343;0.058579;-0.357406;-0.637207;-0.190430;0.579346;-0.080317;-0.730258;-0.119207;-0.667878
29238;7.690413;4.763747;-4.904512;0.849064;0.196877;-0.321747;-0.632080;-0.182617;0.566650;-0.076704;-0.729411;-0.126118;-0.667959
29239;9.211266;5.096703;-3.961433;0.871646;0.202489;-0.323951;-0.640137;-0.185059;0.567383;-0.072952;-0.728500;-0.133173;-0.668005
29240;9.648537;3.898392;-2.386700;0.877822;0.163030;-0.393571;-0.636963;-0.180420;0.573975;-0.069587;-0.727688;-0.140659;-0.667715
29241;9.092489;3.387880;-1.127479;1.102798;0.235644;-0.412526;-0.642334;-0.160889;0.568115;-0.064870;-0.726518;-0.149544;-0.667533
29242;9.045859;3.544626;-0.144616;1.338515;0.299501;-0.378781;-0.641846;-0.157227;0.572998;-0.058450;-0.725073;-0.159553;-0.667380
29243;9.247090;3.528090;0.464843;1.368087;0.300380;-0.247796;-0.642090;-0.140381;0.574707;-0.051113;-0.723708;-0.168912;-0.667161
29244;9.353648;3.632094;0.606844;1.211201;0.228258;-0.186618;-0.643311;-0.142090;0.572510;-0.044477;-0.722671;-0.176977;-0.666669
29245;9.896747;3.248517;0.186702;1.034809;0.148991;-0.191272;-0.653320;-0.138672;0.571045;-0.039041;-0.721934;-0.184044;-0.665895
29246;9.879985;2.099028;-0.508847;0.963166;0.071435;-0.197266;-0.655762;-0.129150;0.582031;-0.034186;-0.721540;-0.190707;-0.664712
29247;9.675065;0.672082;-0.834513;1.079483;0.040323;-0.258762;-0.649414;-0.105225;0.575684;-0.029019;-0.721198;-0.198356;-0.663089
29248;9.254789;0.715331;-1.166402;1.290201;0.058069;-0.313321;-0.651367;-0.103516;0.583740;-0.022857;-0.720643;-0.207473;-0.661140
29249;9.102329;2.101610;-1.467106;1.511271;0.118535;-0.375414;-0.641113;-0.092529;0.576416;-0.015602;-0.719586;-0.218153;-0.659062
29250;9.228567;2.842900;-1.553391;1.633220;0.184198;-0.389956;-0.659180;-0.078369;0.576172;-0.007574;-0.718024;-0.229554;-0.657031
29251;9.375853;3.073083;-1.824972;1.602436;0.163518;-0.395589;-0.652832;-0.076172;0.579346;0.000202;-0.716421;-0.240773;-0.654805
29252;9.359774;3.058455;-2.128380;1.517032;0.127671;-0.399517;-0.651855;-0.060547;0.576172;0.007376;-0.714876;-0.251503;-0.652414
29253;9.309843;2.960560;-2.521933;1.461333;0.116569;-0.410331;-0.661865;-0.050293;0.578125;0.014135;-0.713251;-0.261953;-0.649965
29254;9.353720;2.621717;-2.338391;1.462429;0.106173;-0.466904;-0.655518;-0.037354;0.588135;0.020570;-0.711442;-0.272702;-0.647349
29255;9.448448;2.149038;-1.926369;1.500009;0.093110;-0.547405;-0.655762;-0.033203;0.582764;0.026760;-0.709391;-0.284085;-0.644471
29256;9.357610;1.778113;-1.784423;1.587241;0.077567;-0.635756;-0.649658;-0.023193;0.579346;0.032951;-0.707060;-0.296403;-0.641191
29257;9.624930;1.301750;-1.661075;1.694819;0.081026;-0.730457;-0.654297;-0.010010;0.579590;0.039270;-0.704290;-0.309782;-0.637549
29258;9.586127;1.220582;-2.151864;1.791988;0.078017;-0.834911;-0.657471;-0.003174;0.572998;0.045588;-0.701056;-0.324205;-0.633509
29259;9.117123;1.523576;-2.141392;1.821256;0.115406;-0.908150;-0.659668;0.004639;0.583496;0.051778;-0.697218;-0.339098;-0.629459
29260;8.600952;1.575201;-2.139395;1.778169;0.124730;-0.977149;-0.660645;0.014648;0.578125;0.057367;-0.692955;-0.354059;-0.625432
29261;8.378316;0.678729;-2.642817;1.678958;0.059510;-1.008976;-0.663818;0.017090;0.573975;0.062011;-0.688793;-0.368614;-0.621162
29262;8.068019;-0.294147;-2.866929;1.569985;-0.036788;-1.078879;-0.665283;0.020752;0.576172;0.065356;-0.684793;-0.382954;-0.616549
29263;8.716775;-1.007805;-3.232902;1.643256;-0.096287;-1.213056;-0.658691;0.034424;0.572021;0.068224;-0.680446;-0.398358;-0.611269
29264;10.337176;-2.385969;-3.441123;1.941906;-0.097551;-1.396820;-0.663818;0.028564;0.572754;0.071822;-0.675093;-0.416180;-0.604884
29265;13.262173;-3.965155;-4.005422;2.430293;-0.022674;-1.659878;-0.663574;0.034912;0.565186;0.077067;-0.667826;-0.437676;-0.597083
29266;15.875516;-5.848089;-5.658726;3.150401;0.039135;-1.994168;-0.665039;0.056885;0.574219;0.084822;-0.658054;-0.464213;-0.586751
29267;14.924589;-6.937352;-6.766455;4.075462;0.145233;-2.555352;-0.679688;0.057861;0.573242;0.095211;-0.644104;-0.497652;-0.573069
29268;11.190692;-3.074660;-8.959285;5.062790;0.381711;-3.159471;-0.677246;0.088867;0.561523;0.108805;-0.624432;-0.537818;-0.555876
29269;8.244912;2.924106;-11.102323;5.717860;0.677747;-3.385602;-0.678467;0.091553;0.543457;0.125791;-0.600045;-0.580417;-0.535947
29270;6.933429;6.102451;-11.965842;5.821600;0.950755;-3.326570;-0.699951;0.113770;0.519043;0.144496;-0.572724;-0.621086;-0.515132
29271;6.007823;7.500559;-12.768057;5.554624;0.957677;-3.277662;-0.709229;0.127441;0.494873;0.161742;-0.544176;-0.658477;-0.494085
29272;5.638719;7.101340;-12.586462;4.923446;0.934297;-3.188529;-0.730469;0.129395;0.474365;0.175940;-0.515575;-0.691136;-0.474930
29273;4.576542;6.920549;-12.416334;4.173299;0.959106;-3.049173;-0.744141;0.125732;0.451904;0.187236;-0.487631;-0.718697;-0.458948
29274;2.820561;4.925562;-12.950658;3.597015;1.100235;-2.798479;-0.760986;0.126465;0.437256;0.197679;-0.460689;-0.741588;-0.445798
29275;2.604811;3.689331;-12.965020;3.339855;1.517188;-2.390821;-0.779785;0.118652;0.406982;0.210952;-0.434462;-0.760223;-0.434514
29276;3.053947;3.455207;-11.263952;3.296168;1.982235;-1.886481;-0.786621;0.118408;0.381348;0.228570;-0.409239;-0.775073;-0.423723
29277;3.020649;4.365642;-10.364954;3.182765;2.427719;-1.299673;-0.806152;0.117676;0.334717;0.250469;-0.385922;-0.785704;-0.413519
29278;2.873051;4.971225;-9.556641;2.951469;2.742635;-0.706243;-0.815918;0.129883;0.289307;0.275436;-0.365415;-0.792032;-0.404095
29279;3.348319;5.622003;-8.354064;2.601964;2.970520;-0.153229;-0.834229;0.145752;0.251709;0.302396;-0.348176;-0.794082;-0.395934
29280;3.838839;6.121804;-6.876089;2.008850;3.040874;0.406138;-0.850342;0.156494;0.203613;0.329641;-0.335548;-0.791569;-0.390082
29281;4.186046;6.396478;-5.538637;1.280785;2.905115;0.932997;-0.857422;0.177246;0.161621;0.355386;-0.328554;-0.784913;-0.386867
29282;4.558640;5.948114;-4.527252;0.693320;2.673597;1.340719;-0.854492;0.197510;0.115723;0.379067;-0.326487;-0.775372;-0.385374
29283;5.178449;4.767841;-3.920011;0.554525;2.512374;1.636537;-0.857910;0.219482;0.087646;0.402028;-0.327083;-0.764581;-0.383153
29284;5.479156;3.316082;-3.819645;0.976237;2.408638;1.840055;-0.848877;0.242920;0.041748;0.425849;-0.327681;-0.754410;-0.377019
29285;5.758618;2.143462;-3.711624;1.768947;2.359075;1.849271;-0.846436;0.277344;-0.001221;0.451218;-0.325433;-0.746292;-0.365437
29286;6.194448;1.553603;-3.675715;2.460120;2.360272;1.692623;-0.829102;0.300293;-0.038086;0.477568;-0.319313;-0.740003;-0.349805
29287;6.410443;1.960042;-3.360795;2.853584;2.365111;1.551133;-0.819580;0.318848;-0.084229;0.504068;-0.310406;-0.734423;-0.331943
29288;7.080206;2.505181;-2.565867;2.861400;2.256038;1.427133;-0.813477;0.336426;-0.134277;0.529023;-0.300674;-0.728831;-0.313903
29289;7.693306;2.553425;-1.209334;2.616103;2.005027;1.328410;-0.797607;0.348389;-0.185791;0.551061;-0.291793;-0.723234;-0.296850
29290;7.980337;1.905502;-0.356685;2.375023;1.749483;1.164161;-0.790527;0.354492;-0.214844;0.570129;-0.283437;-0.718033;-0.281151
29291;8.563244;0.886491;-0.185593;2.222806;1.511139;0.919074;-0.770264;0.357178;-0.244385;0.586473;-0.274722;-0.713724;-0.266789
29292;8.732348;-0.536772;-0.248034;2.121643;1.256043;0.603550;-0.769043;0.354736;-0.277100;0.600068;-0.265058;-0.710789;-0.253853
29293;8.234407;-1.450403;-0.249016;1.941254;0.920480;0.195005;-0.764893;0.346436;-0.296143;0.610182;-0.254485;-0.709771;-0.243189
29294;7.624407;0.351793;0.403349;1.466823;0.481487;-0.243237;-0.760254;0.346924;-0.301758;0.615655;-0.244559;-0.710772;-0.236566
29295;7.325777;3.060373;0.216111;0.784397;-0.055473;-0.574565;-0.756104;0.332520;-0.312988;0.615832;-0.237203;-0.713767;-0.234567
29296;7.304259;3.801040;-0.913205;0.218138;-0.569396;-0.830654;-0.771973;0.324463;-0.306641;0.611291;-0.232217;-0.718745;-0.236228
29297;6.455039;3.827951;-3.241502;-0.101695;-0.964596;-1.098012;-0.778809;0.312256;-0.287109;0.603168;-0.228012;-0.725543;-0.240387
29298;4.239086;7.276202;-4.362750;-0.291596;-1.127109;-1.410845;-0.787354;0.293701;-0.280762;0.592961;-0.223152;-0.733233;-0.246921
29299;6.609773;4.880983;-5.269648;-0.577399;-1.017991;-1.387868;-0.803223;0.278809;-0.270020;0.582797;-0.219567;-0.739585;-0.255247
29300;34.390492;-14.337075;-1.978332;-1.188970;-0.011515;0.543338;-0.802490;0.289795;-0.259521;0.581720;-0.228675;-0.736091;-0.259768
29301;18.353474;-2.080849;-3.336165;-0.263436;-0.668653;-0.739645;-0.803223;0.286621;-0.253906;0.575558;-0.226819;-0.740165;-0.263519
29302;5.490851;3.039736;-3.712260;0.703765;-0.609905;-1.583998;-0.812988;0.268799;-0.241211;0.569649;-0.214948;-0.747563;-0.265417
29303;1.049323;2.923745;-4.683888;0.140764;0.148915;-1.004390;-0.814941;0.249268;-0.247803;0.568653;-0.207647;-0.748961;-0.269395
29304;7.502623;1.813118;-3.136912;-0.259164;-0.548885;-1.141572;-0.820801;0.233154;-0.237549;0.562249;-0.202929;-0.752936;-0.275288
29305;10.687614;7.387690;-4.711759;0.403287;-0.417681;-1.320047;-0.832520;0.212646;-0.238281;0.557306;-0.193659;-0.758020;-0.278050
29306;8.604388;5.367225;-2.998621;1.069798;-0.117349;-1.570998;-0.838623;0.192627;-0.239258;0.554643;-0.178974;-0.763505;-0.278207
29307;8.039610;3.692433;-1.951402;0.970922;0.111171;-1.002127;-0.843750;0.171875;-0.241455;0.554496;-0.167803;-0.766704;-0.276661
29308;8.939971;6.172704;-2.254398;0.713556;0.142988;-0.553074;-0.841797;0.171631;-0.248291;0.555174;-0.160600;-0.768457;-0.274707
29309;9.192784;7.155982;-2.817954;0.226465;-0.108906;-0.596016;-0.841553;0.152832;-0.248291;0.553463;-0.155949;-0.770280;-0.275732
29310;8.802662;5.312163;-3.038930;-0.285441;-0.285700;-0.716268;-0.845947;0.142822;-0.237549;0.549650;-0.153290;-0.771868;-0.280370
29311;9.285365;3.758906;-2.532972;-0.386228;-0.306626;-0.679102;-0.846924;0.137451;-0.235596;0.545633;-0.151375;-0.773231;-0.285453
29312;9.273876;3.582456;-2.489028;-0.206185;-0.280757;-0.512379;-0.846924;0.132812;-0.235840;0.542387;-0.149649;-0.774666;-0.288643
29313;8.636378;4.533992;-3.403815;0.201108;-0.163905;-0.530570;-0.846436;0.132568;-0.216064;0.540345;-0.145680;-0.776554;-0.289428
29314;8.536414;4.802419;-3.542673;0.320307;-0.084304;-0.527735;-0.848145;0.122070;-0.223877;0.538954;-0.140999;-0.778348;-0.289522
29315;9.251908;4.106020;-3.166822;0.194794;-0.035585;-0.412757;-0.853027;0.114990;-0.227783;0.537996;-0.137506;-0.779468;-0.289969
29316;9.530497;3.442085;-2.957182;0.123477;-0.041185;-0.311733;-0.855713;0.101074;-0.222168;0.537158;-0.135002;-0.780315;-0.290420
29317;9.192967;3.195526;-2.473570;0.057385;-0.091433;-0.316987;-0.850830;0.099854;-0.230225;0.535901;-0.132879;-0.781228;-0.291266
29318;9.152765;2.292138;-1.821757;0.109893;-0.098915;-0.408532;-0.850342;0.093018;-0.228271;0.534427;-0.129944;-0.782394;-0.292169
29319;9.439636;1.492317;-1.847631;0.274866;-0.098419;-0.504786;-0.855957;0.092529;-0.220703;0.532891;-0.125642;-0.784048;-0.292421
29320;9.423810;1.322357;-2.369759;0.475056;-0.132104;-0.597683;-0.851318;0.077637;-0.225342;0.531103;-0.119923;-0.786410;-0.291731
29321;9.190490;1.753915;-2.450625;0.568941;-0.157285;-0.645429;-0.857666;0.063721;-0.222412;0.529106;-0.113527;-0.789122;-0.290595
29322;8.986246;2.171799;-2.544419;0.546542;-0.228352;-0.705874;-0.863770;0.053955;-0.223389;0.526445;-0.106997;-0.792105;-0.289787
29323;8.839083;2.249519;-2.515533;0.435069;-0.286224;-0.760750;-0.856689;0.055664;-0.209717;0.523142;-0.100727;-0.795074;-0.289887
29324;8.932349;2.581267;-2.588902;0.312529;-0.335033;-0.794388;-0.861816;0.033936;-0.215820;0.519303;-0.094880;-0.797940;-0.290886
29325;9.029158;2.698238;-2.751216;0.287849;-0.369836;-0.829770;-0.863525;0.017334;-0.208984;0.515097;-0.088979;-0.800876;-0.292157
29326;9.282634;2.004834;-3.191407;0.391326;-0.397292;-0.932617;-0.872070;0.004883;-0.195557;0.510499;-0.082008;-0.804199;-0.293137
29327;9.410269;1.348778;-2.983440;0.515485;-0.435291;-1.064117;-0.862549;-0.017090;-0.199707;0.505363;-0.073711;-0.808000;-0.293788
29328;9.288845;0.270225;-2.018714;0.470675;-0.515861;-1.169357;-0.866943;-0.022217;-0.191895;0.499346;-0.065076;-0.811996;-0.295095
29329;8.218374;-1.199839;0.748647;0.114898;-0.662806;-1.142307;-0.859375;-0.041748;-0.176758;0.492149;-0.058458;-0.815613;-0.298576
29330;8.845977;0.900231;-0.620971;-0.247910;-0.844728;-1.096696;-0.869141;-0.057617;-0.175049;0.483597;-0.054079;-0.818944;-0.304205
29331;12.799970;0.464057;-1.027283;-0.105440;-0.886242;-1.225106;-0.866211;-0.073486;-0.150635;0.474436;-0.048345;-0.822738;-0.309314
29332;14.197527;-0.091466;-0.511169;0.351294;-0.995941;-1.490244;-0.867676;-0.099121;-0.142578;0.463940;-0.039258;-0.828089;-0.312230
29333;13.589958;-0.028701;-0.091940;0.826118;-1.072635;-1.651674;-0.871338;-0.122314;-0.126221;0.452536;-0.027404;-0.834794;-0.312378
29334;13.453595;0.813678;0.373914;0.931956;-1.164789;-1.718162;-0.867188;-0.148438;-0.106201;0.440202;-0.014914;-0.841851;-0.311909
29335;15.460351;-1.126051;-0.089081;0.814877;-1.413211;-1.798893;-0.858398;-0.175049;-0.079102;0.425745;-0.002922;-0.849197;-0.312405
29336;16.893813;-5.179772;0.470254;0.932628;-1.652793;-1.956285;-0.852539;-0.185547;-0.060791;0.409007;0.009988;-0.857308;-0.312470
29337;18.311355;-10.721894;-0.106834;1.549929;-1.694581;-2.171016;-0.849609;-0.225342;-0.034424;0.391137;0.026434;-0.866627;-0.308658
29338;15.893918;-12.104913;-0.822109;2.210850;-1.290744;-2.225724;-0.837646;-0.250000;-0.009033;0.375636;0.046474;-0.875667;-0.299910
29339;10.035211;-2.166982;0.855225;2.197584;-1.676725;-1.937696;-0.825928;-0.281006;0.022217;0.357772;0.063400;-0.885290;-0.290243
29340;10.376066;4.862706;-7.737590;2.573344;-1.615603;-1.696801;-0.804932;-0.300049;0.053467;0.340467;0.079782;-0.895035;-0.276820
29341;11.611025;7.240196;-9.592755;2.608039;-1.541567;-1.828531;-0.797119;-0.300781;0.076904;0.323101;0.097365;-0.903789;-0.263232
29342;10.902826;8.780057;-10.002747;2.020108;-1.263548;-1.758771;-0.795166;-0.321289;0.108398;0.308224;0.113392;-0.909886;-0.253472
29343;9.128399;8.292147;-11.017651;0.872178;-1.121927;-1.240425;-0.776123;-0.328125;0.121338;0.296473;0.122800;-0.913289;-0.250852
29344;8.699973;7.594719;-12.936915;0.048707;-0.623095;-0.859788;-0.763184;-0.338135;0.122559;0.290112;0.128303;-0.913979;-0.253014
29345;6.355357;6.441586;-12.134829;-0.030887;-0.215564;-0.526195;-0.768555;-0.337646;0.121826;0.287632;0.131928;-0.913826;-0.254529
29346;6.084826;6.720840;-10.545121;0.281934;0.104246;-0.026378;-0.753662;-0.336914;0.125488;0.288299;0.133174;-0.914106;-0.252108
29347;5.261864;8.188857;-10.013048;0.477378;0.850093;0.546892;-0.758545;-0.331299;0.108643;0.295617;0.132084;-0.913597;-0.245978
29348;4.038917;9.362870;-10.100759;0.296466;1.603326;1.023723;-0.757080;-0.306641;0.090332;0.309788;0.128433;-0.911224;-0.239179
29349;2.377066;9.669167;-9.963325;-0.211841;2.188291;1.480982;-0.770752;-0.293701;0.055420;0.329728;0.121104;-0.906475;-0.234342
29350;0.973494;9.301111;-9.179776;-0.761621;2.507450;1.985419;-0.773926;-0.268066;0.019775;0.353399;0.108988;-0.899721;-0.231804
29351;0.449285;8.579317;-8.252528;-1.146960;2.687920;2.449649;-0.778076;-0.238037;-0.020264;0.379339;0.092493;-0.891321;-0.230419
29352;0.034927;7.478483;-7.472767;-1.377711;2.828642;2.910896;-0.786377;-0.201416;-0.061523;0.406935;0.071989;-0.881373;-0.228917
29353;-0.362484;6.446299;-6.188572;-1.308224;2.926931;3.240878;-0.790283;-0.158936;-0.100342;0.435266;0.049372;-0.870227;-0.225412
29354;-1.024221;5.016263;-5.215395;-0.997637;2.981021;3.454160;-0.786377;-0.117676;-0.143555;0.463599;0.026348;-0.858271;-0.218525
29355;-0.974032;4.935658;-5.276625;-0.431686;3.208310;3.698203;-0.788574;-0.075684;-0.182617;0.493115;0.004124;-0.845152;-0.206247
29356;-0.965178;5.301217;-4.886055;0.253932;3.501844;3.970364;-0.778320;-0.012695;-0.219238;0.524225;-0.016713;-0.830482;-0.187637
29357;-0.843176;6.357356;-5.323043;0.810283;3.724541;4.154299;-0.751709;0.032715;-0.269043;0.556127;-0.036019;-0.813955;-0.164018
29358;0.959435;6.434094;-4.687554;0.769354;3.823964;3.954320;-0.735840;0.077881;-0.321289;0.587186;-0.053957;-0.795199;-0.141281
29359;3.283760;5.037524;-3.220073;0.500195;3.766593;3.535645;-0.701416;0.115723;-0.372803;0.616054;-0.070407;-0.774996;-0.122072
29360;6.538620;2.488098;-1.826570;-0.120370;3.263237;3.445640;-0.676758;0.156494;-0.399658;0.640146;-0.089863;-0.755463;-0.106832
29361;8.004079;1.694739;-0.736754;-1.037439;2.452325;3.947221;-0.652344;0.200684;-0.418701;0.657877;-0.117954;-0.737878;-0.093915
29362;7.852939;1.748626;-1.261748;-1.244689;1.831667;3.789796;-0.625000;0.257324;-0.434326;0.670500;-0.146533;-0.722614;-0.082387
29363;9.162333;-0.093127;-2.224345;-1.506155;1.142768;3.127043;-0.595947;0.291992;-0.438232;0.677433;-0.172895;-0.711011;-0.075204
29364;8.656441;-0.940270;-1.041253;-1.997788;0.467665;2.161470;-0.577148;0.322754;-0.430420;0.678524;-0.196605;-0.703757;-0.075351
29365;11.121629;-3.449000;0.223619;-1.616323;0.000006;0.768996;-0.569580;0.342773;-0.418457;0.676335;-0.210206;-0.701378;-0.080337
29366;10.238045;-3.375212;0.156618;-0.837066;-0.347695;-0.498066;-0.574219;0.339355;-0.419189;0.672532;-0.212213;-0.703597;-0.087286
29367;8.104039;1.346053;-1.568083;-0.112926;-0.578257;-1.681257;-0.585938;0.331787;-0.410645;0.667702;-0.203360;-0.709623;-0.096197
29368;9.171748;5.479114;-4.747356;0.153472;-0.697545;-2.363367;-0.599854;0.297607;-0.392822;0.661859;-0.189023;-0.717455;-0.107104
29369;17.364385;-0.006330;-6.716457;-0.595349;-0.501726;-1.443387;-0.610596;0.289307;-0.391846;0.656625;-0.184084;-0.721873;-0.117708
29370;23.731700;-6.543663;-3.732216;-1.882075;-0.789907;-0.131285;-0.613281;0.303955;-0.378662;0.648811;-0.194318;-0.724429;-0.128403
29371;14.226907;-0.430349;-6.761466;-1.189891;-1.399881;-1.278753;-0.627930;0.295898;-0.354248;0.637003;-0.194470;-0.732656;-0.140084
29372;2.102797;3.329748;-5.904971;-1.566537;-0.907693;-1.060912;-0.637207;0.293213;-0.333008;0.627634;-0.197312;-0.737247;-0.153658
29373;1.561439;3.537832;-5.000019;-1.441842;-1.001181;-0.796512;-0.650879;0.283203;-0.314453;0.618052;-0.201190;-0.741852;-0.164893
29374;8.431949;5.578214;-3.854023;-0.926107;-0.864657;-1.296589;-0.659180;0.271484;-0.302246;0.609337;-0.199083;-0.747128;-0.175711
29375;11.208468;8.059269;-4.247850;-0.175636;-0.568473;-1.860701;-0.663086;0.253906;-0.301270;0.602732;-0.189170;-0.752752;-0.185181
29376;9.143185;3.040983;-3.876607;0.714958;-0.224252;-1.992691;-0.681885;0.229736;-0.296143;0.599308;-0.173372;-0.758012;-0.190236
29377;8.809841;3.483232;-2.534602;1.330070;0.062113;-1.724328;-0.681396;0.204102;-0.300781;0.598812;-0.155688;-0.762184;-0.190423
29378;8.661048;4.502170;-2.621627;1.434762;0.110548;-1.341980;-0.675049;0.180908;-0.303467;0.599186;-0.139786;-0.765554;-0.188049
29379;8.229953;5.764818;-3.041995;0.741326;-0.198448;-1.179412;-0.695312;0.163086;-0.304443;0.596912;-0.128840;-0.769035;-0.188899
29380;7.778895;6.163340;-3.645301;-0.025447;-0.418470;-1.092752;-0.697754;0.162354;-0.307129;0.592467;-0.122596;-0.772219;-0.193984
29381;8.439882;5.342236;-4.042807;-0.463020;-0.497579;-0.934686;-0.696533;0.146973;-0.297119;0.587263;-0.119647;-0.774855;-0.201016
29382;9.363442;3.638387;-3.365448;-0.347297;-0.388703;-0.804429;-0.700928;0.132080;-0.294434;0.583044;-0.116781;-0.776962;-0.206765
29383;9.230132;3.002999;-2.897592;0.094517;-0.223716;-0.816415;-0.698730;0.128174;-0.292969;0.580268;-0.111400;-0.778997;-0.209864
29384;9.031410;3.291269;-2.919666;0.382422;-0.092150;-0.810696;-0.701172;0.111084;-0.286377;0.578591;-0.104429;-0.780853;-0.211179
29385;8.964502;3.585480;-2.812437;0.440060;-0.038137;-0.752605;-0.705322;0.103516;-0.285889;0.577384;-0.097457;-0.782456;-0.211878
29386;9.198265;3.356750;-2.869431;0.258098;-0.084361;-0.689929;-0.709717;0.096924;-0.293457;0.575811;-0.091847;-0.783874;-0.213418
29387;9.136088;2.806166;-2.861742;0.042144;-0.141251;-0.606419;-0.714844;0.090088;-0.279053;0.573830;-0.087916;-0.785091;-0.215920
29388;9.082670;2.325195;-2.694126;-0.084288;-0.189343;-0.547008;-0.716553;0.077148;-0.281738;0.571533;-0.085064;-0.786248;-0.218925
29389;9.050312;1.891172;-2.174451;-0.114869;-0.218221;-0.558077;-0.711670;0.075928;-0.284668;0.568991;-0.082335;-0.787475;-0.222157
29390;9.454116;1.397595;-1.850015;-0.026821;-0.244869;-0.699387;-0.708008;0.070557;-0.273682;0.566055;-0.078307;-0.789063;-0.225455
29391;9.734576;0.562687;-1.470769;0.050689;-0.311527;-0.851287;-0.718994;0.059570;-0.269775;0.562421;-0.073037;-0.791171;-0.228903
29392;9.932299;0.070584;-1.204270;0.165140;-0.415567;-0.989468;-0.724854;0.039551;-0.274414;0.557871;-0.066512;-0.794014;-0.232161
29393;9.658899;0.114694;-1.230735;0.332666;-0.462974;-1.050304;-0.714844;0.035645;-0.262207;0.552936;-0.058891;-0.797361;-0.234541
29394;9.541732;0.945666;-1.822601;0.554239;-0.474188;-1.133553;-0.730469;0.019287;-0.261475;0.547815;-0.049710;-0.801142;-0.235796
29395;10.066393;1.061576;-2.054947;0.672814;-0.521553;-1.258549;-0.724121;-0.003174;-0.255371;0.542105;-0.039239;-0.805308;-0.236772
29396;9.949009;-1.644970;-0.043120;0.481106;-0.669991;-1.340920;-0.723389;-0.029053;-0.249268;0.535088;-0.029367;-0.809658;-0.239315
29397;8.919897;-1.821350;1.931895;0.066819;-0.905607;-1.276387;-0.730469;-0.033203;-0.236572;0.526426;-0.022241;-0.814076;-0.244258
29398;11.160355;-1.231662;1.006031;-0.072658;-1.024138;-1.339421;-0.739990;-0.048828;-0.227051;0.516719;-0.015536;-0.818587;-0.250351
29399;13.663105;-1.472532;-0.058863;0.216107;-1.126150;-1.563901;-0.734619;-0.073486;-0.208740;0.505777;-0.006265;-0.823978;-0.255363
29400;13.944745;-0.963614;-1.137650;0.743389;-1.214444;-1.790654;-0.730713;-0.099365;-0.191650;0.493630;0.006602;-0.830614;-0.257616
29401;12.931662;-0.200681;-1.793085;1.127154;-1.316749;-1.948147;-0.736084;-0.123047;-0.183838;0.480223;0.021917;-0.838135;-0.257750
29402;12.268616;-0.866826;-1.775803;1.186693;-1.468673;-2.042666;-0.727783;-0.145996;-0.159668;0.465311;0.037797;-0.845949;-0.257736
29403;14.013293;-0.937087;-0.683678;1.140365;-1.686004;-2.075176;-0.724609;-0.185059;-0.127930;0.448564;0.053243;-0.854017;-0.258091
29404;17.439352;-6.118774;-0.228853;1.546447;-2.019715;-2.198909;-0.726074;-0.204346;-0.094971;0.428706;0.070339;-0.863561;-0.255983
29405;18.479217;-11.905464;1.448743;2.088738;-1.837966;-2.281138;-0.714111;-0.241699;-0.061523;0.409328;0.090302;-0.872831;-0.249925
29406;13.313214;-4.744502;1.892668;2.176527;-1.500360;-2.014950;-0.710449;-0.271484;-0.050293;0.392586;0.109274;-0.880598;-0.241832
29407;9.900526;4.173723;0.697342;1.682348;-1.891535;-1.539890;-0.696777;-0.290039;-0.019287;0.374134;0.122293;-0.888468;-0.235991
29408;11.877361;9.421469;-7.508882;1.461234;-1.831617;-1.243012;-0.699463;-0.295654;0.012207;0.356744;0.132482;-0.895527;-0.230680
29409;11.886052;10.484412;-9.639234;1.287884;-1.493512;-1.264356;-0.686279;-0.313232;0.029785;0.341878;0.142913;-0.900833;-0.226262
29410;9.815676;9.274633;-10.231699;0.423614;-1.333664;-1.121901;-0.672363;-0.331299;0.058105;0.329412;0.150073;-0.903951;-0.227678
29411;8.706650;6.268891;-11.289890;-0.449187;-1.406583;-0.795463;-0.660156;-0.332520;0.068848;0.318043;0.152210;-0.905836;-0.234824
29412;6.983021;6.001051;-12.499310;-0.301864;-0.819728;-0.468137;-0.660645;-0.347412;0.070312;0.311517;0.153396;-0.906754;-0.239215
29413;4.837904;5.847478;-9.938752;0.236827;-0.519592;-0.010752;-0.657715;-0.344971;0.087646;0.307466;0.153118;-0.908515;-0.237951
29414;3.961818;7.175426;-8.806288;0.535852;-0.143087;0.621475;-0.661377;-0.343262;0.088379;0.307122;0.149564;-0.910680;-0.232314
29415;2.395071;9.325463;-9.501193;0.463585;0.557098;1.154062;-0.663086;-0.333252;0.095459;0.313177;0.143124;-0.911495;-0.224970
29416;2.733228;11.565638;-9.815402;-0.291938;1.088081;1.819455;-0.676758;-0.312744;0.077148;0.325331;0.130618;-0.910099;-0.220949
29417;0.033854;11.250318;-9.280779;-1.482087;2.022502;2.163905;-0.691895;-0.298096;0.052246;0.346310;0.113914;-0.903862;-0.223890
29418;0.212744;10.132883;-7.876796;-2.659059;2.192394;2.493609;-0.710449;-0.261230;0.007324;0.369931;0.091520;-0.894343;-0.234363
29419;0.122877;7.647853;-6.825826;-3.128709;2.151069;2.878244;-0.721924;-0.236084;-0.016357;0.393811;0.064590;-0.883065;-0.246853
29420;1.324763;4.824880;-6.557387;-2.512884;2.180416;3.184409;-0.727539;-0.206787;-0.056885;0.417588;0.037379;-0.871781;-0.253419
29421;1.714925;2.630499;-5.098581;-1.183786;2.279659;3.417030;-0.739990;-0.158203;-0.086670;0.441577;0.013254;-0.861837;-0.249139
29422;2.300834;2.852845;-3.976847;0.020424;2.438550;3.482787;-0.738281;-0.110352;-0.113525;0.466141;-0.006604;-0.852729;-0.235633
29423;2.770399;4.141080;-3.838600;0.651266;2.582972;3.449633;-0.750244;-0.078613;-0.140869;0.491088;-0.023486;-0.843200;-0.217474
29424;2.462834;5.963091;-4.652709;0.938217;2.797777;3.406458;-0.747559;-0.040527;-0.176758;0.516839;-0.038472;-0.832166;-0.197222
29425;1.681263;7.388936;-5.453728;0.879406;3.043872;3.399382;-0.732178;-0.006348;-0.214111;0.543499;-0.053204;-0.818765;-0.177205
29426;0.760395;7.555475;-6.301968;0.445433;3.143082;3.490299;-0.720703;0.041016;-0.249023;0.569933;-0.070297;-0.802987;-0.159521
29427;1.485533;7.005636;-6.490901;0.062793;3.291891;3.452955;-0.713379;0.075439;-0.285156;0.596180;-0.088652;-0.784763;-0.144422
29428;2.037908;5.997507;-3.691036;-0.305274;3.216349;3.605648;-0.681885;0.113770;-0.317139;0.620873;-0.109784;-0.765104;-0.130695
29429;4.451373;5.744331;-1.038458;-1.162153;2.721144;3.960930;-0.658203;0.170410;-0.344727;0.640968;-0.137972;-0.745479;-0.119932
29430;8.807049;4.067658;-1.744027;-1.691762;1.977439;4.065643;-0.638672;0.220703;-0.351807;0.654874;-0.170153;-0.727942;-0.110856
29431;10.970922;-0.044547;-4.337166;-1.533703;1.355410;3.585865;-0.621338;0.262695;-0.362061;0.663866;-0.198902;-0.713605;-0.102411
29432;10.007015;-4.059631;-1.164508;-1.352708;0.874255;2.869191;-0.600098;0.304688;-0.365479;0.669038;-0.222608;-0.702585;-0.095956
29433;10.556320;-5.228757;0.524082;-0.938110;0.432789;1.589896;-0.588867;0.319092;-0.366699;0.671037;-0.236758;-0.696379;-0.093333
29434;9.739901;-4.392884;2.215136;-0.219683;0.184710;-0.015221;-0.579590;0.322266;-0.369629;0.671682;-0.237740;-0.695195;-0.095008
29435;8.849693;-1.507047;0.048948;0.056089;-0.383850;-1.456769;-0.591309;0.304688;-0.364746;0.668388;-0.229258;-0.700207;-0.102017
29436;13.087658;-1.165171;-8.363148;-0.569802;-1.092965;-2.162035;-0.612061;0.285156;-0.351807;0.658968;-0.220684;-0.709777;-0.115222
29437;22.628823;-12.079678;-8.141058;-1.158731;-0.933952;-0.956289;-0.623779;0.280762;-0.335693;0.650341;-0.222250;-0.715472;-0.125544
29438;18.861228;-2.491647;-0.118882;-1.118733;-1.207877;-1.174057;-0.647949;0.270020;-0.312988;0.639761;-0.222533;-0.722926;-0.136247
29439;6.745945;8.495403;-2.417488;-1.079372;-1.103013;-1.471053;-0.651367;0.268555;-0.306152;0.629363;-0.220631;-0.730197;-0.148450
29440;0.482308;10.746494;-4.814352;-1.489940;-0.929313;-0.971782;-0.662354;0.256348;-0.281250;0.619691;-0.223636;-0.734918;-0.160827
29441;6.546264;7.148599;-4.713068;-1.182107;-0.811298;-1.298948;-0.668701;0.252197;-0.268066;0.610699;-0.222828;-0.739861;-0.173206
29442;10.242008;8.798336;-6.351006;-0.175923;-0.413830;-1.910267;-0.677246;0.230225;-0.260742;0.604975;-0.212494;-0.745178;-0.183198
29443;9.491268;1.760255;-3.705185;0.895949;-0.056651;-2.121787;-0.694092;0.200684;-0.261719;0.602840;-0.194829;-0.750473;-0.188189
29444;9.044530;2.040996;-3.337391;1.395626;0.125302;-1.628351;-0.696777;0.172607;-0.270996;0.603217;-0.177386;-0.754580;-0.187808
29445;8.073268;5.102218;-4.441356;1.437977;0.142578;-1.306875;-0.687500;0.151611;-0.273682;0.604089;-0.161672;-0.757972;-0.185516
29446;7.239780;6.621925;-3.751456;0.547768;-0.094371;-1.148237;-0.704834;0.134277;-0.279297;0.602391;-0.151775;-0.760827;-0.187701
29447;7.805563;5.338457;-2.398816;-0.524988;-0.358997;-0.914287;-0.703125;0.129395;-0.267334;0.597957;-0.149144;-0.762963;-0.195169
29448;9.986120;3.710825;-2.314007;-0.884669;-0.422185;-0.699166;-0.704590;0.128662;-0.262695;0.592964;-0.149759;-0.764491;-0.203764
29449;10.459532;2.137693;-2.128302;-0.325232;-0.293617;-0.827616;-0.708252;0.106201;-0.264893;0.589221;-0.146560;-0.766431;-0.209577
29450;9.261823;1.676545;-2.222142;0.245714;-0.140569;-0.933169;-0.717041;0.103271;-0.259521;0.586930;-0.139607;-0.768696;-0.212437
29451;8.865913;2.757545;-2.784709;0.612082;-0.020634;-0.923235;-0.717773;0.092529;-0.256592;0.585807;-0.130703;-0.770953;-0.213024
29452;8.604333;3.559982;-3.173614;0.675386;-0.008451;-0.865308;-0.712646;0.082764;-0.257568;0.584881;-0.121828;-0.773135;-0.212916
29453;8.952007;3.797001;-3.101341;0.518964;-0.044591;-0.789506;-0.719971;0.062256;-0.261475;0.583653;-0.114259;-0.775084;-0.213397
29454;9.302380;3.229164;-2.798926;0.289763;-0.121705;-0.698797;-0.719727;0.054932;-0.264404;0.581837;-0.108521;-0.776875;-0.214835
29455;9.298908;2.191229;-2.456571;0.160630;-0.187478;-0.660945;-0.714111;0.046875;-0.251709;0.579523;-0.103767;-0.778690;-0.216858
29456;9.300137;1.323286;-1.987943;0.208088;-0.212710;-0.670958;-0.720947;0.034668;-0.251709;0.577046;-0.098761;-0.780693;-0.218591
29457;9.312498;0.767050;-1.710621;0.290608;-0.224906;-0.720554;-0.725830;0.027588;-0.254150;0.574444;-0.093054;-0.782913;-0.220004
29458;9.389333;0.996784;-1.502414;0.343160;-0.246755;-0.807764;-0.726562;0.014160;-0.242188;0.571553;-0.086562;-0.785360;-0.221460
29459;9.539985;1.184162;-1.347614;0.350156;-0.306289;-0.855752;-0.726562;0.001953;-0.246582;0.568154;-0.079828;-0.788088;-0.223038
29460;9.516877;0.979702;-1.451126;0.304617;-0.398378;-0.883851;-0.732422;-0.016113;-0.237549;0.564032;-0.073291;-0.791129;-0.224969
29461;9.337273;0.412805;-1.506122;0.331521;-0.448256;-0.947894;-0.733154;-0.025391;-0.239990;0.559435;-0.066294;-0.794431;-0.226972
29462;9.223848;0.385871;-1.798570;0.427156;-0.454762;-1.062715;-0.731201;-0.034424;-0.223877;0.554581;-0.058098;-0.797931;-0.228847
29463;9.422601;1.157993;-2.138381;0.472091;-0.478957;-1.181386;-0.740723;-0.051514;-0.229736;0.549299;-0.048946;-0.801590;-0.230928
29464;9.391343;1.301321;-1.598152;0.429209;-0.577439;-1.270296;-0.729248;-0.072754;-0.215576;0.543097;-0.039579;-0.805542;-0.233626
29465;9.052637;-0.687320;-0.215209;0.170933;-0.731615;-1.290151;-0.736816;-0.085449;-0.210449;0.535656;-0.031542;-0.809572;-0.238057
29466;8.738990;-0.331747;1.156559;-0.230091;-0.943843;-1.224692;-0.746826;-0.104736;-0.189453;0.526728;-0.026155;-0.813601;-0.244801
29467;10.626883;-0.787804;0.416777;-0.368409;-1.104678;-1.263292;-0.734863;-0.118896;-0.177734;0.516509;-0.021437;-0.817905;-0.252567
29468;12.235887;-2.095831;-0.147875;-0.123604;-1.237393;-1.480525;-0.736816;-0.139404;-0.166016;0.504861;-0.014461;-0.823140;-0.259511
29469;12.760386;-2.069701;-1.524453;0.411324;-1.335243;-1.772322;-0.729004;-0.156982;-0.147217;0.491833;-0.003443;-0.829723;-0.263911
29470;12.860550;-0.328189;-2.032491;0.910809;-1.400635;-1.918712;-0.730957;-0.184814;-0.133789;0.477858;0.010490;-0.837339;-0.265338
29471;13.440953;1.101132;-1.664998;1.071317;-1.490262;-1.933717;-0.727051;-0.209229;-0.096191;0.462996;0.024962;-0.845269;-0.265579
29472;14.951151;-1.598227;-0.784642;1.106204;-1.810080;-1.993832;-0.729004;-0.244141;-0.072021;0.445502;0.039270;-0.854036;-0.265723
29473;17.416747;-6.947004;-1.490988;1.523112;-1.914328;-2.151293;-0.722656;-0.274658;-0.043213;0.426504;0.055989;-0.863490;-0.263333
29474;17.678752;-9.667326;-1.496211;2.010167;-1.501925;-2.241501;-0.707275;-0.298828;-0.017090;0.409747;0.075949;-0.871845;-0.257345
29475;11.673019;-2.059219;-0.555533;2.448808;-1.308560;-2.084966;-0.701416;-0.329346;0.011230;0.394146;0.096624;-0.879866;-0.247281
29476;9.315906;5.099540;-1.931204;2.202139;-1.664209;-1.678818;-0.688232;-0.346924;0.044189;0.376683;0.112707;-0.888183;-0.237778
29477;9.429104;9.265094;-8.546255;1.855890;-1.730074;-1.293330;-0.689453;-0.363037;0.083984;0.359589;0.124653;-0.895806;-0.229541
29478;9.694942;10.666417;-10.765505;1.436025;-1.326935;-0.991093;-0.684814;-0.391602;0.107422;0.346359;0.133805;-0.901329;-0.223018
29479;9.100651;8.457931;-10.920191;0.605238;-1.079633;-0.775014;-0.682129;-0.393799;0.126465;0.336231;0.139367;-0.904619;-0.221789
29480;7.716588;6.047521;-10.801996;-0.196622;-1.192034;-0.656519;-0.669678;-0.403076;0.135498;0.326359;0.141562;-0.906755;-0.226375
29481;5.904511;7.600440;-12.081538;-0.056617;-0.941748;-0.470617;-0.667236;-0.403076;0.147949;0.318528;0.143193;-0.908603;-0.229078
29482;3.977481;7.769296;-9.890644;0.242239;-0.624258;0.076125;-0.674561;-0.409668;0.156250;0.313766;0.142077;-0.910784;-0.227677
29483;3.592744;8.481549;-8.785462;0.245505;-0.011127;0.736175;-0.675537;-0.399658;0.160889;0.314888;0.137118;-0.912119;-0.223794
29484;2.988437;9.400943;-9.039882;0.105872;0.740347;1.185451;-0.692871;-0.393311;0.152832;0.322684;0.129768;-0.911652;-0.218920
29485;1.935366;9.567671;-9.333526;-0.421597;1.404292;1.507081;-0.721680;-0.371582;0.134277;0.336600;0.119736;-0.908583;-0.216428
29486;0.869990;8.834792;-8.777996;-1.139839;1.926882;1.888650;-0.733154;-0.351807;0.107178;0.355713;0.105688;-0.902723;-0.217691
29487;0.399833;7.476217;-7.614327;-1.589476;2.162411;2.296488;-0.752197;-0.343506;0.071777;0.377459;0.087587;-0.895050;-0.220767
29488;0.528275;6.320307;-6.108337;-1.601832;2.232535;2.633141;-0.777344;-0.300781;0.030762;0.399990;0.066982;-0.886544;-0.222624
29489;0.414027;5.307835;-5.543326;-1.261373;2.328687;2.860931;-0.783203;-0.267090;-0.002197;0.423039;0.045937;-0.877564;-0.220929
29490;-0.168884;5.034510;-5.527483;-0.666054;2.536486;3.047723;-0.807861;-0.221436;-0.042725;0.447251;0.025957;-0.868065;-0.213906
29491;-0.427719;4.795019;-4.856437;-0.011856;2.787615;3.255703;-0.815430;-0.185303;-0.078369;0.472961;0.007327;-0.857802;-0.201071
29492;-0.025992;4.923553;-4.359853;0.463450;3.019400;3.489938;-0.826660;-0.140625;-0.113770;0.500024;-0.010725;-0.846252;-0.183628
29493;0.602713;6.120931;-4.586251;0.582334;3.165235;3.689584;-0.827148;-0.090820;-0.155518;0.527631;-0.029448;-0.832923;-0.164246
29494;1.555705;7.937893;-6.262234;0.520605;3.419076;3.715798;-0.815186;-0.037109;-0.205566;0.556100;-0.048225;-0.816953;-0.144965
29495;2.765915;8.492286;-8.269153;0.223846;3.736582;3.574207;-0.804688;0.004639;-0.251953;0.585414;-0.066938;-0.797726;-0.128234
29496;3.629064;5.766218;-3.197921;-0.870179;3.561443;3.828741;-0.790527;0.061279;-0.290527;0.612098;-0.092734;-0.776531;-0.117204
29497;6.393244;3.538648;-1.981849;-1.774992;2.766835;4.438968;-0.769287;0.124268;-0.338135;0.632290;-0.127676;-0.756458;-0.108075
29498;9.908428;0.958734;-3.292453;-1.935227;2.348757;4.503569;-0.741699;0.188232;-0.354980;0.648419;-0.163976;-0.736799;-0.098952
29499;11.046081;-3.353806;-1.895651;-1.958959;1.691561;4.260958;-0.720947;0.248779;-0.363281;0.659059;-0.199149;-0.719614;-0.090204
29500;11.231146;-7.562612;-0.061864;-1.196204;1.118665;3.479185;-0.699219;0.301025;-0.383057;0.666039;-0.225609;-0.706454;-0.080098
29501;10.331822;-7.526780;3.335058;-0.567127;0.772525;1.822295;-0.684326;0.330811;-0.384033;0.670624;-0.238913;-0.698279;-0.074771
29502;9.962966;-9.071141;5.400471;-0.030880;0.333045;-0.058483;-0.692139;0.332275;-0.383057;0.672454;-0.238518;-0.696526;-0.075940
29503;8.313320;-4.637292;3.779459;0.624967;-0.211827;-1.482824;-0.701172;0.312744;-0.386963;0.671469;-0.226504;-0.700997;-0.080182
29504;7.764478;0.327839;-2.042264;0.842584;-0.663165;-2.575046;-0.710693;0.278809;-0.383789;0.667292;-0.207114;-0.709939;-0.088380
29505;12.573312;4.176741;-10.115854;0.308225;-0.564783;-2.456255;-0.725342;0.240479;-0.384033;0.662531;-0.191223;-0.717387;-0.099208
29506;18.808644;-2.700188;-8.427877;-0.334676;-0.012290;-0.950996;-0.732178;0.243164;-0.385254;0.661108;-0.187369;-0.718681;-0.106431
29507;19.433017;-2.376821;-3.019055;-1.047995;-0.954338;-0.766085;-0.735352;0.234619;-0.367432;0.653001;-0.189367;-0.724160;-0.115421
29508;9.369704;-0.004025;-3.827122;-1.706595;-1.511346;-0.808888;-0.760986;0.239746;-0.340088;0.640261;-0.195170;-0.731893;-0.127703
29509;1.901114;6.679407;-4.319174;-2.021532;-1.299862;-0.314049;-0.757324;0.248291;-0.320801;0.628560;-0.205366;-0.737062;-0.139559
