// Start Time: Unknown
// Update Rate: 60.0Hz
// Filter Profile: human (46.1)
// Firmware Version: 4.4.0
PacketCounter;Acc_X;Acc_Y;Acc_Z;Gyr_X;Gyr_Y;Gyr_Z;Mag_X;Mag_Y;Mag_Z;Quat_q0;Quat_q1;Quat_q2;Quat_q3
28597;6.201860;3.456648;6.838004;0.001084;-0.001622;-0.007326;-0.760498;0.096680;-0.293457;0.270936;-0.270608;-0.282705;-0.879456
28598;6.189248;3.441882;6.807955;0.002273;-0.001755;-0.007822;-0.761719;0.096436;-0.291504;0.270880;-0.270597;-0.282743;-0.879464
28599;6.203844;3.473056;6.836002;0.002272;-0.001755;-0.007823;-0.768555;0.096680;-0.287598;0.270822;-0.270589;-0.282782;-0.879472
28600;6.201163;3.457696;6.816640;0.001245;0.000437;-0.009203;-0.765625;0.096924;-0.285400;0.270759;-0.270561;-0.282811;-0.879491
28601;6.192806;3.476006;6.825119;0.000959;-0.001665;-0.011104;-0.758301;0.111328;-0.298096;0.270675;-0.270545;-0.282847;-0.879510
28602;6.202281;3.476544;6.835647;0.003461;0.003029;-0.007861;-0.765137;0.100830;-0.289551;0.270632;-0.270497;-0.282885;-0.879526
28603;6.199509;3.461131;6.816401;-0.000096;-0.002216;-0.008361;-0.765625;0.097656;-0.289307;0.270565;-0.270493;-0.282909;-0.879540
28604;6.180988;3.479871;6.814472;0.001386;0.003945;-0.008025;-0.762451;0.106689;-0.291260;0.270518;-0.270443;-0.282931;-0.879563
28605;6.195797;3.448644;6.818000;0.000940;-0.000217;-0.008050;-0.765137;0.095215;-0.281250;0.270459;-0.270423;-0.282960;-0.879578
28606;6.187467;3.466758;6.826538;0.001681;0.000406;-0.008112;-0.771240;0.091553;-0.292969;0.270404;-0.270398;-0.282992;-0.879592
28607;6.207543;3.462484;6.806365;0.003621;0.000172;-0.010199;-0.762207;0.091797;-0.299316;0.270336;-0.270365;-0.283045;-0.879606
28608;6.193516;3.456631;6.858958;0.003343;0.002260;-0.013170;-0.760742;0.098633;-0.291504;0.270251;-0.270312;-0.283098;-0.879631
28609;6.175240;3.471965;6.815576;0.003336;-0.001932;-0.012102;-0.763916;0.094238;-0.289062;0.270165;-0.270292;-0.283157;-0.879645
28610;6.208139;3.423658;6.820655;0.004371;0.000068;-0.011792;-0.757324;0.096436;-0.289795;0.270088;-0.270255;-0.283219;-0.879660
28611;6.199413;3.442620;6.829109;0.005709;0.002721;-0.012638;-0.772461;0.100098;-0.293457;0.270015;-0.270197;-0.283283;-0.879680
28612;6.180386;3.462701;6.826917;0.006926;0.000412;-0.017722;-0.763184;0.094727;-0.295898;0.269904;-0.270143;-0.283371;-0.879702
28613;6.199462;3.463810;6.847876;0.006020;0.002646;-0.015327;-0.766846;0.097168;-0.289307;0.269814;-0.270078;-0.283441;-0.879727
28614;6.172987;3.496735;6.813091;0.005423;0.000615;-0.014545;-0.767334;0.092529;-0.296387;0.269723;-0.270035;-0.283508;-0.879746
28615;6.192280;3.497438;6.834055;0.004233;0.000746;-0.014049;-0.760986;0.093262;-0.291748;0.269632;-0.269990;-0.283568;-0.879769
28616;6.197184;3.465898;6.805950;0.006014;-0.001547;-0.014260;-0.766113;0.092041;-0.293945;0.269538;-0.269956;-0.283648;-0.879782
28617;6.191261;3.441283;6.829150;0.004525;0.002122;-0.013680;-0.763672;0.091064;-0.292725;0.269452;-0.269904;-0.283709;-0.879805
28618;6.192447;3.460072;6.848075;0.007369;-0.000348;-0.018169;-0.755615;0.087402;-0.292480;0.269336;-0.269854;-0.283803;-0.879826
28619;6.199079;3.501810;6.802108;0.008849;0.000898;-0.018297;-0.762695;0.104492;-0.286133;0.269224;-0.269785;-0.283904;-0.879848
28620;6.187831;3.505050;6.791224;0.004103;0.000693;-0.017840;-0.772461;0.097900;-0.289551;0.269118;-0.269754;-0.283959;-0.879872
28621;6.181335;3.482674;6.835302;0.003936;0.003552;-0.015505;-0.767822;0.096191;-0.291016;0.269027;-0.269709;-0.284013;-0.879897
28622;6.180354;3.482681;6.814714;0.005270;0.002015;-0.015282;-0.760010;0.096924;-0.288330;0.268936;-0.269665;-0.284077;-0.879917
28623;6.158745;3.490214;6.834550;0.005115;-0.000043;-0.013402;-0.761719;0.099609;-0.284912;0.268857;-0.269637;-0.284140;-0.879930
28624;6.188567;3.488286;6.845305;0.006011;-0.001553;-0.014273;-0.770508;0.098877;-0.293457;0.268772;-0.269627;-0.284210;-0.879936
28625;6.172499;3.520051;6.820939;0.003165;0.000916;-0.009784;-0.763916;0.099854;-0.291748;0.268722;-0.269609;-0.284240;-0.879947
28626;6.180010;3.503955;6.812228;0.001510;-0.000934;-0.004717;-0.773438;0.093018;-0.296631;0.268705;-0.269614;-0.284249;-0.879948
28627;6.189741;3.504050;6.822786;0.001216;0.001877;-0.006164;-0.773193;0.095215;-0.286865;0.268669;-0.269590;-0.284267;-0.879960
28628;6.192454;3.458885;6.817139;0.000623;-0.000153;-0.005378;-0.756104;0.103760;-0.293701;0.268628;-0.269613;-0.284289;-0.879959
28629;6.186605;3.491169;6.824135;0.001821;-0.001011;-0.007406;-0.761475;0.094727;-0.293701;0.268612;-0.269599;-0.284288;-0.879968
28630;6.178346;3.509245;6.832497;0.001821;-0.001011;-0.007407;-0.769287;0.094482;-0.294434;0.268568;-0.269582;-0.284312;-0.879979
28631;6.175645;3.495743;6.833774;0.000632;-0.000881;-0.006909;-0.771973;0.097656;-0.291260;0.268524;-0.269579;-0.284329;-0.879988
28632;6.183403;3.479141;6.825115;-0.000429;-0.000701;-0.002627;-0.759033;0.097656;-0.284424;0.268514;-0.269608;-0.284324;-0.879984
28633;6.183085;3.479625;6.825156;0.000036;0.001279;-0.007198;-0.774170;0.091064;-0.293213;0.268474;-0.269613;-0.284329;-0.879993
28634;6.182664;3.478682;6.804546;0.002734;0.000214;-0.012415;-0.759277;0.091064;-0.291260;0.268380;-0.269592;-0.284383;-0.880011
28635;6.186615;3.510645;6.822231;-0.000266;0.000627;-0.006041;-0.764893;0.096924;-0.296631;0.268333;-0.269565;-0.284393;-0.880030
28636;6.181150;3.484792;6.845746;0.000494;-0.000204;-0.009166;-0.775879;0.091797;-0.291748;0.268295;-0.269535;-0.284395;-0.880050
28637;6.170744;3.484160;6.814590;0.000035;0.001278;-0.007200;-0.761719;0.094971;-0.293945;0.268233;-0.269539;-0.284415;-0.880061
28638;6.180381;3.484350;6.825195;0.000193;-0.000856;-0.008008;-0.761230;0.089600;-0.288330;0.268192;-0.269517;-0.284418;-0.880080
28639;6.180097;3.482846;6.804748;-0.002052;0.002915;-0.005833;-0.764648;0.097656;-0.291992;0.268131;-0.269495;-0.284419;-0.880104
28640;6.189594;3.482693;6.815657;-0.002332;0.000808;-0.007737;-0.761963;0.094482;-0.296631;0.268103;-0.269494;-0.284390;-0.880123
28641;6.178476;3.486041;6.826056;-0.001890;0.004243;-0.009248;-0.765625;0.091797;-0.295410;0.268070;-0.269419;-0.284364;-0.880164
28642;6.195589;3.469034;6.828592;0.000165;0.004789;-0.006022;-0.764404;0.096680;-0.293213;0.268043;-0.269355;-0.284360;-0.880193
28643;6.184494;3.470304;6.818561;0.000016;0.006194;-0.006747;-0.767822;0.097900;-0.291260;0.268044;-0.269305;-0.284334;-0.880217
28644;6.175315;3.488360;6.827731;-0.000101;0.005414;-0.012067;-0.774170;0.106689;-0.291504;0.268004;-0.269277;-0.284319;-0.880242
28645;6.176381;3.504129;6.826753;0.002714;0.005130;-0.011967;-0.765137;0.096680;-0.285400;0.268030;-0.269288;-0.284290;-0.880240
28646;6.157207;3.523047;6.825080;-0.000993;0.002732;-0.010122;-0.765137;0.096924;-0.293945;0.267975;-0.269319;-0.284287;-0.880249
28647;6.177710;3.460546;6.821661;0.001084;0.001823;-0.009959;-0.765869;0.083252;-0.296387;0.267948;-0.269287;-0.284280;-0.880269
28648;6.160766;3.496079;6.838976;0.003601;0.004349;-0.011308;-0.760498;0.099121;-0.289062;0.267820;-0.269167;-0.284356;-0.880320
28649;6.198184;3.476645;6.841820;0.002862;0.003723;-0.011246;-0.770508;0.096191;-0.287109;0.267808;-0.269149;-0.284351;-0.880331
28650;6.158946;3.497151;6.818607;0.003482;0.000108;-0.014022;-0.763916;0.097900;-0.293701;0.267728;-0.269193;-0.284395;-0.880328
28651;6.155400;3.486929;6.840463;0.005709;0.001254;-0.015744;-0.766357;0.100586;-0.290039;0.267686;-0.269144;-0.284422;-0.880346
28652;6.179559;3.514446;6.838005;0.004209;0.001460;-0.012555;-0.759033;0.097168;-0.293945;0.267680;-0.269156;-0.284425;-0.880344
28653;6.140968;3.479024;6.851552;0.003631;-0.001299;-0.013301;-0.774902;0.095703;-0.299072;0.267647;-0.269113;-0.284431;-0.880365
28654;6.176003;3.503843;6.838610;0.007497;-0.004493;-0.013346;-0.761230;0.095215;-0.295654;0.267609;-0.269087;-0.284489;-0.880366
28655;6.170412;3.535373;6.824135;0.006469;-0.006499;-0.013656;-0.762939;0.088623;-0.290039;0.267554;-0.269059;-0.284536;-0.880376
28656;6.168210;3.520826;6.804076;0.005558;-0.004263;-0.011255;-0.763428;0.092285;-0.288818;0.267432;-0.269058;-0.284627;-0.880384
28657;6.173249;3.495039;6.837585;0.001981;-0.003149;-0.008227;-0.767578;0.093750;-0.291504;0.267366;-0.269094;-0.284662;-0.880382
28658;6.170757;3.481861;6.838571;0.003907;-0.002652;-0.008789;-0.775635;0.093506;-0.292236;0.267325;-0.269113;-0.284700;-0.880376
28659;6.182915;3.496944;6.847312;0.003007;-0.001145;-0.007919;-0.760742;0.093506;-0.292480;0.267287;-0.269147;-0.284737;-0.880365
28660;6.146545;3.531257;6.822351;0.001390;-0.001722;-0.010052;-0.765869;0.101807;-0.294922;0.267243;-0.269123;-0.284740;-0.880385
28661;6.161886;3.500517;6.825612;0.002866;-0.000471;-0.010180;-0.757812;0.092773;-0.294922;0.267308;-0.269114;-0.284695;-0.880382
28662;6.181787;3.498338;6.826151;0.000028;0.001268;-0.007214;-0.759033;0.095947;-0.298340;0.267290;-0.269035;-0.284667;-0.880421
28663;6.150375;3.505124;6.835681;0.000777;0.001164;-0.008811;-0.765625;0.089111;-0.291260;0.267320;-0.268930;-0.284618;-0.880460
28664;6.185137;3.528925;6.823465;-0.000851;0.001316;-0.009411;-0.762207;0.093018;-0.291016;0.267215;-0.268909;-0.284642;-0.880490
28665;6.175000;3.474299;6.850061;0.000027;0.001268;-0.007215;-0.760742;0.091064;-0.291748;0.267187;-0.268899;-0.284633;-0.880505
28666;6.166820;3.487960;6.817551;0.002680;0.003122;-0.006307;-0.767822;0.102295;-0.291260;0.267154;-0.268848;-0.284645;-0.880527
28667;6.162419;3.537025;6.843885;0.000347;0.000457;-0.011445;-0.767822;0.092529;-0.296143;0.267229;-0.268896;-0.284590;-0.880507
28668;6.159602;3.521698;6.824810;0.002251;0.002416;-0.008941;-0.760010;0.099365;-0.286133;0.267207;-0.268824;-0.284596;-0.880533
28669;6.158941;3.522798;6.824839;0.001665;0.000386;-0.008151;-0.764893;0.091309;-0.294678;0.267255;-0.268899;-0.284566;-0.880506
28670;6.137935;3.526910;6.824284;0.001204;0.001869;-0.006182;-0.762207;0.092285;-0.294678;0.267225;-0.268841;-0.284568;-0.880532
28671;6.179162;3.463240;6.841974;0.002392;0.001742;-0.006681;-0.763428;0.093506;-0.290527;0.267214;-0.268772;-0.284567;-0.880557
28672;6.131145;3.560096;6.831405;0.000630;-0.000891;-0.006927;-0.766602;0.088867;-0.296143;0.267192;-0.268795;-0.284565;-0.880557
28673;6.149363;3.543142;6.833063;0.003144;-0.004546;-0.001515;-0.764648;0.094482;-0.300781;0.267153;-0.268768;-0.284603;-0.880565
28674;6.158086;3.526148;6.823880;-0.002481;-0.007446;0.000900;-0.764893;0.095703;-0.295898;0.267233;-0.268731;-0.284538;-0.880573
28675;6.167001;3.508836;6.814684;-0.001732;-0.007550;-0.000698;-0.768555;0.093018;-0.299316;0.267299;-0.268763;-0.284492;-0.880558
28676;6.159629;3.527624;6.843206;-0.002790;-0.007366;0.003595;-0.772949;0.093994;-0.297607;0.267358;-0.268762;-0.284447;-0.880555
28677;6.161166;3.524704;6.821846;-0.003222;-0.010800;0.005111;-0.760742;0.090576;-0.287109;0.267424;-0.268837;-0.284413;-0.880523
28678;6.162803;3.523691;6.820890;-0.004258;-0.012077;0.006335;-0.759521;0.097168;-0.288330;0.267388;-0.269006;-0.284403;-0.880485
28679;6.184945;3.519247;6.820571;-0.005159;-0.010570;0.007206;-0.766357;0.099365;-0.287109;0.267488;-0.269169;-0.284324;-0.880431
28680;6.189132;3.529825;6.797883;-0.008734;-0.009459;0.010237;-0.767334;0.094727;-0.302979;0.267630;-0.269392;-0.284216;-0.880354
28681;6.181160;3.474409;6.844447;-0.009473;-0.010086;0.010299;-0.765137;0.093506;-0.291016;0.267746;-0.269376;-0.284088;-0.880365
28682;6.190887;3.455370;6.835350;-0.005192;-0.008383;0.011804;-0.765381;0.096191;-0.296387;0.267812;-0.269497;-0.284033;-0.880326
28683;6.194474;3.470633;6.853774;-0.000573;-0.008949;0.006010;-0.764160;0.104980;-0.293701;0.267915;-0.269531;-0.283987;-0.880299
28684;6.178117;3.483256;6.809723;-0.003380;-0.009400;0.004377;-0.761963;0.093994;-0.285645;0.268155;-0.269638;-0.283866;-0.880232
28685;6.177180;3.468219;6.810261;-0.001292;-0.011035;0.003003;-0.766357;0.096191;-0.288086;0.268133;-0.269811;-0.283875;-0.880183
28686;6.211359;3.478360;6.818989;-0.000716;-0.008275;0.003749;-0.768555;0.093018;-0.296875;0.268178;-0.269951;-0.283867;-0.880129
28687;6.204640;3.492837;6.806208;-0.000428;-0.006895;0.004122;-0.756104;0.091553;-0.292969;0.268199;-0.269948;-0.283854;-0.880128
28688;6.208678;3.448722;6.820562;-0.001461;-0.005442;0.001202;-0.756836;0.098633;-0.297607;0.268155;-0.269928;-0.283828;-0.880156
28689;6.191008;3.466302;6.818163;0.000611;-0.002888;-0.001247;-0.761719;0.105469;-0.288330;0.268278;-0.269839;-0.283751;-0.880170
28690;6.206065;3.494993;6.825308;0.002707;-0.005253;-0.004155;-0.764160;0.103271;-0.295166;0.268476;-0.269945;-0.283700;-0.880094
28691;6.214392;3.478382;6.816213;-0.000568;-0.003490;-0.002281;-0.759277;0.094727;-0.293701;0.268662;-0.269946;-0.283616;-0.880063
28692;6.201945;3.464933;6.806912;-0.000566;-0.000760;-0.006425;-0.767090;0.093994;-0.290771;0.268622;-0.269891;-0.283588;-0.880102
28693;6.199110;3.453303;6.828939;0.000172;-0.000134;-0.006489;-0.771973;0.098877;-0.297363;0.268564;-0.269902;-0.283605;-0.880111
28694;6.205757;3.497408;6.824351;0.002708;-0.002524;-0.008300;-0.763428;0.102539;-0.296631;0.268629;-0.269861;-0.283604;-0.880104
28695;6.165047;3.502858;6.802104;0.004192;-0.004730;-0.005818;-0.762207;0.098633;-0.296875;0.268783;-0.269829;-0.283565;-0.880079
28696;6.185715;3.500524;6.801986;0.001816;-0.004476;-0.004818;-0.768311;0.093994;-0.297119;0.268848;-0.269782;-0.283529;-0.880085
28697;6.216842;3.495055;6.791950;0.000764;-0.004293;-0.000523;-0.763184;0.101562;-0.292725;0.268844;-0.269751;-0.283528;-0.880096
28698;6.202185;3.471000;6.825108;-0.002791;-0.004641;-0.000557;-0.767578;0.095947;-0.296875;0.268986;-0.269801;-0.283452;-0.880062
28699;6.202526;3.468860;6.804382;-0.000144;0.000675;-0.002259;-0.753906;0.093506;-0.289551;0.269016;-0.269740;-0.283423;-0.880081
28700;6.202395;3.469053;6.804402;-0.002791;-0.001911;-0.004702;-0.772949;0.092041;-0.290771;0.268917;-0.269748;-0.283386;-0.880120
28701;6.191918;3.471759;6.814559;-0.002961;0.000953;-0.002356;-0.773682;0.092041;-0.288330;0.268840;-0.269788;-0.283405;-0.880125
28702;6.216811;3.495415;6.791793;-0.000730;0.001373;-0.005616;-0.763184;0.098633;-0.288574;0.268741;-0.269849;-0.283458;-0.880120
28703;6.203802;3.484157;6.803397;-0.000577;-0.000032;-0.004892;-0.758545;0.098877;-0.290283;0.268782;-0.269901;-0.283432;-0.880100
28704;6.203156;3.486806;6.824139;-0.001612;0.001421;-0.007813;-0.769531;0.105957;-0.294678;0.268812;-0.269894;-0.283380;-0.880110
28705;6.200619;3.470802;6.805129;-0.002935;-0.001238;-0.006962;-0.759033;0.090820;-0.298828;0.269009;-0.269917;-0.283291;-0.880071
28706;6.194577;3.502617;6.812347;-0.001027;0.000722;-0.004456;-0.767822;0.093262;-0.291260;0.268896;-0.269778;-0.283260;-0.880158
28707;6.169109;3.477061;6.815098;-0.003573;0.003840;-0.001108;-0.758545;0.096924;-0.293457;0.268857;-0.269780;-0.283240;-0.880176
28708;6.197347;3.456893;6.807228;0.000026;-0.002190;-0.004606;-0.757324;0.095703;-0.298096;0.268871;-0.269755;-0.283206;-0.880190
28709;6.209707;3.471360;6.816083;0.001952;-0.001690;-0.005170;-0.767578;0.091309;-0.297363;0.268879;-0.269644;-0.283175;-0.880232
28710;6.189001;3.477530;6.835772;0.002851;-0.003198;-0.006045;-0.770020;0.104004;-0.290039;0.268775;-0.269582;-0.283220;-0.880268
28711;6.191236;3.492870;6.833884;0.003139;-0.001817;-0.005672;-0.767090;0.096191;-0.291748;0.268935;-0.269668;-0.283210;-0.880196
28712;6.191235;3.491366;6.813145;-0.000586;0.000698;-0.003358;-0.765137;0.105957;-0.294189;0.268943;-0.269684;-0.283200;-0.880192
28713;6.198969;3.476697;6.825130;0.000459;-0.001484;-0.001973;-0.764160;0.100342;-0.291016;0.269177;-0.269707;-0.283120;-0.880139
28714;6.198723;3.479244;6.845561;-0.000857;-0.002144;-0.006804;-0.758057;0.095459;-0.290039;0.269236;-0.269748;-0.283092;-0.880118
28715;6.178504;3.478680;6.803721;0.001484;0.000524;-0.001663;-0.765869;0.098389;-0.292236;0.269224;-0.269752;-0.283077;-0.880125
28716;6.198724;3.477806;6.824788;-0.000729;-0.001357;-0.001472;-0.768799;0.097168;-0.292969;0.269283;-0.269782;-0.283050;-0.880106
28717;6.188658;3.478494;6.814086;-0.000720;-0.002088;-0.003008;-0.768311;0.098145;-0.286865;0.269304;-0.269810;-0.283043;-0.880094
28718;6.196600;3.463836;6.825882;-0.000271;-0.002842;-0.003446;-0.762207;0.095947;-0.290527;0.269328;-0.269924;-0.283057;-0.880047
28719;6.186652;3.464795;6.814936;0.000629;-0.004349;-0.004321;-0.770996;0.093994;-0.291748;0.269297;-0.269966;-0.283062;-0.880042
28720;6.170898;3.497243;6.811132;0.000467;-0.002215;-0.003510;-0.766846;0.102295;-0.289307;0.269248;-0.270001;-0.283097;-0.880035
28721;6.201807;3.493891;6.821740;0.001666;-0.005800;-0.001400;-0.759766;0.090576;-0.289551;0.269371;-0.270109;-0.283082;-0.879969
28722;6.212549;3.491652;6.811107;-0.000550;-0.004953;-0.005357;-0.764404;0.091553;-0.293945;0.269210;-0.270138;-0.283114;-0.879999
28723;6.179879;3.483272;6.821640;-0.001159;-0.004794;0.000039;-0.763184;0.093018;-0.290283;0.269130;-0.270139;-0.283121;-0.880021
28724;6.190386;3.482865;6.831799;-0.001001;-0.004200;-0.004919;-0.756836;0.106445;-0.284668;0.269035;-0.270173;-0.283138;-0.880034
28725;6.195427;3.509749;6.807902;-0.000863;-0.004143;-0.001123;-0.764648;0.096436;-0.297607;0.269224;-0.270311;-0.283056;-0.879960
28726;6.199326;3.463927;6.801848;-0.000863;-0.004143;-0.001123;-0.770508;0.107178;-0.289795;0.269246;-0.270268;-0.283023;-0.879977
28727;6.196208;3.507414;6.786867;-0.004004;0.000403;0.000406;-0.759033;0.102539;-0.283936;0.269470;-0.270366;-0.282926;-0.879910
28728;6.235849;3.428377;6.805842;-0.001613;-0.001311;-0.003670;-0.770020;0.102295;-0.288574;0.269552;-0.270479;-0.282878;-0.879865
28729;6.193527;3.497133;6.829626;-0.001917;-0.001231;-0.000972;-0.773438;0.102539;-0.289795;0.269665;-0.270573;-0.282842;-0.879813
28730;6.201542;3.480332;6.820939;-0.000860;-0.002145;-0.006806;-0.768555;0.089844;-0.285400;0.269747;-0.270650;-0.282836;-0.879766
28731;6.211795;3.479874;6.831355;-0.003688;-0.003137;0.000317;-0.765869;0.093262;-0.292725;0.269617;-0.270752;-0.282881;-0.879760
28732;6.222175;3.478880;6.841928;-0.003112;-0.000375;0.001066;-0.768555;0.089111;-0.292236;0.269572;-0.270743;-0.282862;-0.879783
28733;6.197374;3.450928;6.823811;-0.002801;-0.001185;-0.003169;-0.763428;0.095703;-0.286621;0.269424;-0.270728;-0.282896;-0.879822
28734;6.212184;3.477196;6.810849;-0.000434;-0.000707;-0.002635;-0.765625;0.100586;-0.285645;0.269390;-0.270785;-0.282901;-0.879813
28735;6.191298;3.482798;6.831008;-0.001473;0.000744;-0.005556;-0.765137;0.096191;-0.297119;0.269418;-0.270865;-0.282875;-0.879789
28736;6.211769;3.475594;6.790529;-0.003406;0.000973;-0.003455;-0.770508;0.099121;-0.288574;0.269411;-0.270785;-0.282825;-0.879831
28737;6.198814;3.464106;6.802223;-0.001465;0.000014;-0.007093;-0.762939;0.106445;-0.293945;0.269408;-0.270840;-0.282821;-0.879817
28738;6.198220;3.466633;6.822990;-0.000301;0.002079;-0.002985;-0.764648;0.099854;-0.290771;0.269576;-0.270820;-0.282721;-0.879803
28739;6.179826;3.482566;6.800532;-0.001015;-0.000740;-0.007532;-0.770996;0.103271;-0.290039;0.269583;-0.270832;-0.282696;-0.879806
28740;6.195390;3.453273;6.824426;0.000024;-0.002191;-0.004611;-0.769775;0.093506;-0.297607;0.269669;-0.270901;-0.282674;-0.879765
28741;6.195301;3.453908;6.824185;0.000327;-0.002271;-0.007310;-0.760498;0.103027;-0.285889;0.269586;-0.270830;-0.282699;-0.879804
28742;6.199953;3.481206;6.800420;0.000466;-0.002214;-0.003512;-0.762207;0.104736;-0.291260;0.269660;-0.270917;-0.282661;-0.879767
28743;6.185142;3.455630;6.813041;0.001661;-0.003071;-0.005551;-0.767578;0.092041;-0.288086;0.269756;-0.270947;-0.282614;-0.879744
28744;6.207828;3.467706;6.811705;0.001956;-0.002420;-0.006714;-0.759033;0.090820;-0.291992;0.269639;-0.270976;-0.282686;-0.879747
28745;6.209983;3.485180;6.830298;0.004633;-0.004750;-0.004732;-0.770264;0.099365;-0.287354;0.269516;-0.270942;-0.282747;-0.879776
28746;6.208128;3.469391;6.810572;0.000179;-0.003596;-0.003888;-0.758545;0.093262;-0.288574;0.269530;-0.271036;-0.282757;-0.879739
28747;6.197848;3.472600;6.820294;0.000768;-0.002295;-0.006213;-0.764893;0.094971;-0.293945;0.269432;-0.271036;-0.282779;-0.879762
28748;6.208114;3.472482;6.830531;-0.001303;-0.004122;-0.002224;-0.774658;0.103027;-0.296387;0.269401;-0.271026;-0.282772;-0.879777
28749;6.208481;3.470703;6.809582;0.000473;-0.002946;-0.005051;-0.768555;0.100098;-0.287598;0.269483;-0.271031;-0.282744;-0.879759
28750;6.208527;3.471199;6.809288;0.000465;-0.002215;-0.003514;-0.765625;0.108643;-0.288086;0.269513;-0.271107;-0.282741;-0.879728
28751;6.195904;3.459860;6.820622;-0.000870;-0.001416;-0.005273;-0.765869;0.092529;-0.296631;0.269654;-0.271191;-0.282663;-0.879684
28752;6.216145;3.457420;6.820965;0.001799;-0.001016;-0.007440;-0.762451;0.100098;-0.291992;0.269561;-0.271101;-0.282695;-0.879730
28753;6.205889;3.458777;6.810089;0.002103;-0.003094;-0.004455;-0.765381;0.102051;-0.284424;0.269591;-0.271105;-0.282680;-0.879724
28754;6.205677;3.459575;6.809876;0.002815;0.001724;-0.005591;-0.766113;0.099854;-0.288086;0.269640;-0.271172;-0.282679;-0.879689
28755;6.195087;3.462891;6.819826;0.000023;-0.002193;-0.004614;-0.760742;0.101562;-0.295898;0.269655;-0.271227;-0.282670;-0.879670
28756;6.207418;3.475469;6.808120;0.002093;-0.000366;-0.008604;-0.767822;0.099609;-0.290283;0.269684;-0.271156;-0.282633;-0.879695
28757;6.192329;3.450153;6.820905;0.001939;-0.000959;-0.003642;-0.768066;0.093506;-0.291016;0.269715;-0.271180;-0.282635;-0.879678
28758;6.196756;3.479495;6.817771;0.000023;-0.002194;-0.004614;-0.767822;0.099609;-0.295898;0.269645;-0.271183;-0.282666;-0.879688
28759;6.194560;3.465588;6.818935;0.000916;-0.002970;-0.003954;-0.768311;0.099365;-0.287354;0.269675;-0.271160;-0.282648;-0.879692
28760;6.215421;3.460798;6.798388;-0.001287;-0.005586;-0.005301;-0.762695;0.093262;-0.296875;0.269667;-0.271253;-0.282651;-0.879665
28761;6.203072;3.449570;6.809432;0.002103;-0.003095;-0.004457;-0.766602;0.099854;-0.298828;0.269605;-0.271177;-0.282669;-0.879701
28762;6.207647;3.479061;6.806077;0.000923;-0.003701;-0.005493;-0.762939;0.100586;-0.293701;0.269631;-0.271121;-0.282644;-0.879719
28763;6.205410;3.467381;6.827678;0.001809;-0.003746;-0.003294;-0.760254;0.098877;-0.292480;0.269675;-0.271118;-0.282622;-0.879713
28764;6.195502;3.468408;6.816645;-0.000551;-0.004958;-0.005366;-0.771973;0.089844;-0.291504;0.269667;-0.271123;-0.282598;-0.879722
28765;6.216318;3.463750;6.796065;0.000922;-0.003701;-0.005494;-0.767578;0.092529;-0.293457;0.269541;-0.271128;-0.282671;-0.879736
28766;6.183566;3.455658;6.806564;0.000785;-0.005756;-0.003607;-0.767822;0.097412;-0.284180;0.269467;-0.271128;-0.282709;-0.879746
28767;6.224705;3.454023;6.848078;0.000492;-0.006407;-0.002444;-0.759766;0.099854;-0.291016;0.269443;-0.271256;-0.282735;-0.879706
28768;6.209404;3.484274;6.823350;0.001235;-0.006510;-0.004047;-0.770508;0.096924;-0.287354;0.269462;-0.271286;-0.282720;-0.879695
28769;6.205456;3.453670;6.805179;-0.001016;-0.002743;-0.001850;-0.769287;0.099365;-0.289551;0.269448;-0.271361;-0.282726;-0.879675
28770;6.220325;3.480138;6.791966;0.000021;-0.002195;-0.004616;-0.774658;0.099609;-0.288818;0.269455;-0.271402;-0.282721;-0.879661
28771;6.215935;3.451969;6.794500;0.002551;-0.003849;-0.004899;-0.761475;0.099609;-0.291504;0.269463;-0.271473;-0.282752;-0.879627
28772;6.205510;3.455422;6.804241;0.001343;-0.000265;-0.007007;-0.763184;0.098145;-0.287842;0.269468;-0.271447;-0.282735;-0.879639
28773;6.217505;3.472166;6.833772;0.000757;-0.001567;-0.004681;-0.764648;0.097656;-0.294189;0.269460;-0.271476;-0.282732;-0.879633
28774;6.219897;3.484917;6.811458;0.000907;-0.002239;-0.002418;-0.765869;0.097656;-0.301025;0.269477;-0.271449;-0.282719;-0.879640
28775;6.225797;3.451901;6.783554;0.000156;-0.000141;-0.006505;-0.761963;0.098389;-0.288330;0.269483;-0.271332;-0.282693;-0.879683
28776;6.214978;3.457149;6.814283;-0.001038;0.000716;-0.004462;-0.764404;0.101562;-0.291260;0.269482;-0.271343;-0.282668;-0.879688
28777;6.206824;3.472574;6.802209;-0.000416;-0.002906;-0.007256;-0.767090;0.101562;-0.288330;0.269500;-0.271359;-0.282641;-0.879686
28778;6.204270;3.460843;6.824158;-0.001768;-0.000645;-0.005938;-0.767822;0.102539;-0.289062;0.269521;-0.271404;-0.282608;-0.879677
28779;6.206235;3.475751;6.822671;0.002223;0.000423;-0.003270;-0.766113;0.098145;-0.282959;0.269585;-0.271435;-0.282591;-0.879653
28780;6.221887;3.446610;6.846556;0.001049;-0.000916;-0.005846;-0.768311;0.101074;-0.293701;0.269557;-0.271513;-0.282611;-0.879631
28781;6.216196;3.474308;6.812332;-0.001166;-0.002072;-0.004115;-0.763916;0.103760;-0.285645;0.269592;-0.271516;-0.282576;-0.879631
28782;6.223939;3.459761;6.824342;-0.001482;0.000736;-0.005563;-0.769287;0.103516;-0.289551;0.269637;-0.271573;-0.282528;-0.879614
28783;6.182677;3.466416;6.823444;-0.001318;-0.001400;-0.006379;-0.767334;0.096191;-0.294434;0.269676;-0.271618;-0.282494;-0.879600
28784;6.225717;3.473035;6.802311;0.000148;0.000590;-0.004967;-0.767090;0.093262;-0.283447;0.269655;-0.271566;-0.282491;-0.879623
28785;6.194921;3.477173;6.791160;0.000471;-0.002950;-0.005059;-0.762939;0.103516;-0.297607;0.269575;-0.271637;-0.282541;-0.879610
28786;6.202781;3.464768;6.823520;-0.003083;-0.003309;-0.005088;-0.765381;0.101074;-0.287109;0.269626;-0.271606;-0.282462;-0.879629
28787;6.215337;3.476901;6.811794;0.000020;-0.002196;-0.004619;-0.765625;0.097412;-0.300781;0.269644;-0.271661;-0.282447;-0.879611
28788;6.221112;3.447873;6.825091;-0.000730;-0.001361;-0.001476;-0.762695;0.096680;-0.293213;0.269666;-0.271573;-0.282410;-0.879644
28789;6.223502;3.460430;6.802860;-0.001160;-0.002804;-0.005656;-0.767334;0.099854;-0.290771;0.269632;-0.271550;-0.282397;-0.879665
28790;6.223307;3.462963;6.823293;-0.000431;-0.001443;-0.004180;-0.769043;0.104004;-0.289795;0.269646;-0.271567;-0.282381;-0.879661
28791;6.210855;3.449519;6.814052;0.000756;-0.001567;-0.004684;-0.759521;0.107910;-0.290771;0.269703;-0.271610;-0.282357;-0.879638
28792;6.225441;3.478299;6.821424;-0.000272;-0.002847;-0.003456;-0.768799;0.094482;-0.293213;0.269808;-0.271645;-0.282281;-0.879619
28793;6.190275;3.453559;6.813193;0.000153;-0.000142;-0.006509;-0.768066;0.096924;-0.291992;0.269751;-0.271606;-0.282301;-0.879642
28794;6.202443;3.468095;6.822137;0.002380;-0.000980;-0.002548;-0.766357;0.104492;-0.297852;0.269752;-0.271596;-0.282317;-0.879640
28795;6.200016;3.454250;6.823520;-0.000298;0.000611;-0.006069;-0.759766;0.098389;-0.298584;0.269816;-0.271541;-0.282259;-0.879656
28796;6.220309;3.449824;6.803297;0.003414;-0.000432;-0.005316;-0.767090;0.099121;-0.299561;0.269821;-0.271443;-0.282248;-0.879688
28797;6.211875;3.467737;6.811732;0.001339;-0.000267;-0.007013;-0.764404;0.104736;-0.298096;0.269823;-0.271358;-0.282236;-0.879718
28798;6.219729;3.451490;6.802983;0.000311;-0.001547;-0.005786;-0.765137;0.097168;-0.297607;0.269890;-0.271314;-0.282184;-0.879727
28799;6.219424;3.454307;6.823376;-0.000862;-0.002888;-0.008363;-0.771973;0.101562;-0.283936;0.269843;-0.271260;-0.282176;-0.879761
28800;6.211293;3.469895;6.811163;0.000311;-0.001547;-0.005786;-0.762451;0.106689;-0.295166;0.269859;-0.271353;-0.282189;-0.879723
28801;6.201209;3.470823;6.800323;-0.000113;-0.004252;-0.002733;-0.766846;0.095703;-0.282471;0.269957;-0.271367;-0.282127;-0.879709
28802;6.201462;3.471169;6.799915;0.000179;-0.003602;-0.003898;-0.766602;0.096436;-0.292969;0.269911;-0.271459;-0.282162;-0.879683
28803;6.219799;3.454272;6.801506;0.000761;-0.002301;-0.006227;-0.761475;0.102539;-0.284912;0.269871;-0.271443;-0.282177;-0.879696
28804;6.211752;3.471804;6.809772;-0.000557;-0.004232;-0.003834;-0.763184;0.109863;-0.290283;0.269900;-0.271529;-0.282155;-0.879667
28805;6.209898;3.457571;6.810843;-0.000855;-0.004149;-0.001129;-0.762939;0.104004;-0.292969;0.270037;-0.271599;-0.282081;-0.879627
28806;6.220464;3.457291;6.820916;0.000338;-0.005006;-0.003174;-0.760254;0.095947;-0.288818;0.270092;-0.271624;-0.282047;-0.879614
28807;6.231301;3.454998;6.810212;-0.000239;-0.007040;-0.002387;-0.762695;0.106445;-0.294434;0.270047;-0.271674;-0.282054;-0.879610
28808;6.219608;3.441200;6.800468;-0.000245;-0.006307;-0.000846;-0.766846;0.102539;-0.291260;0.270146;-0.271708;-0.281999;-0.879587
28809;6.222362;3.455686;6.798443;-0.001585;-0.005513;-0.002607;-0.766846;0.101318;-0.288330;0.270183;-0.271759;-0.281972;-0.879568
28810;6.240999;3.440436;6.820480;-0.000405;-0.004903;-0.001570;-0.768799;0.103027;-0.285400;0.270215;-0.271827;-0.281963;-0.879540
28811;6.245771;3.469278;6.817169;-0.001306;-0.003397;-0.000689;-0.765137;0.095703;-0.293213;0.270275;-0.271919;-0.281944;-0.879499
28812;6.202918;3.461122;6.817397;0.000622;-0.003623;-0.002799;-0.768311;0.098877;-0.288086;0.270237;-0.271909;-0.281954;-0.879511
28813;6.203145;3.461341;6.817079;-0.001015;-0.002746;-0.001854;-0.767578;0.099609;-0.295166;0.270242;-0.271957;-0.281951;-0.879495
28814;6.242292;3.438925;6.798504;0.000622;-0.003623;-0.002800;-0.771973;0.098877;-0.288818;0.270252;-0.271947;-0.281943;-0.879498
28815;6.221827;3.444483;6.818335;0.000462;-0.002219;-0.003524;-0.768555;0.103516;-0.290283;0.270253;-0.271984;-0.281960;-0.879481
28816;6.236482;3.471043;6.805170;-0.000439;-0.000712;-0.002642;-0.770264;0.100342;-0.298828;0.270309;-0.272009;-0.281932;-0.879465
28817;6.221819;3.445018;6.818072;-0.001905;-0.002705;-0.004055;-0.765869;0.098877;-0.291748;0.270314;-0.271972;-0.281902;-0.879484
28818;6.226148;3.473926;6.815124;-0.000896;0.000774;-0.000660;-0.764404;0.098145;-0.292725;0.270335;-0.271961;-0.281876;-0.879490
28819;6.229920;3.426124;6.788880;-0.000884;-0.000692;-0.003743;-0.765137;0.113037;-0.294678;0.270320;-0.271940;-0.281860;-0.879506
28820;6.221385;3.445671;6.818138;-0.000303;0.000609;-0.006072;-0.757324;0.096680;-0.287842;0.270449;-0.271933;-0.281779;-0.879494
28821;6.223212;3.460602;6.816729;-0.000594;-0.000041;-0.004908;-0.763428;0.096680;-0.291504;0.270402;-0.271926;-0.281769;-0.879514
28822;6.220798;3.446586;6.818211;-0.001330;-0.000672;-0.004844;-0.766357;0.094727;-0.292969;0.270359;-0.271908;-0.281760;-0.879536
28823;6.218386;3.432570;6.819693;-0.000594;-0.000042;-0.004908;-0.766602;0.107178;-0.293457;0.270303;-0.271873;-0.281767;-0.879562
28824;6.222359;3.461771;6.816914;-0.001941;0.001485;-0.005127;-0.760742;0.097656;-0.289551;0.270379;-0.271861;-0.281705;-0.879562
28825;6.220044;3.447739;6.818316;0.001358;-0.002993;-0.002865;-0.763672;0.100342;-0.282227;0.270361;-0.271872;-0.281711;-0.879562
28826;6.222192;3.462647;6.816621;-0.000144;-0.000795;-0.005350;-0.768311;0.093994;-0.295654;0.270348;-0.271937;-0.281714;-0.879545
28827;6.230049;3.446262;6.807953;-0.001034;-0.000755;-0.007552;-0.762695;0.101562;-0.293945;0.270266;-0.271883;-0.281727;-0.879583
28828;6.239905;3.446529;6.818403;0.000597;-0.000898;-0.006956;-0.756104;0.098389;-0.288818;0.270272;-0.271850;-0.281712;-0.879596
28829;6.219150;3.450400;6.817785;0.001048;-0.001651;-0.007398;-0.763916;0.097412;-0.288574;0.270234;-0.271839;-0.281714;-0.879610
28830;6.218949;3.451241;6.817542;0.000312;-0.002282;-0.007334;-0.772461;0.100830;-0.289795;0.270180;-0.271851;-0.281729;-0.879618
28831;6.208490;3.452710;6.806762;0.002524;-0.001124;-0.009069;-0.766357;0.098389;-0.288330;0.270157;-0.271865;-0.281757;-0.879612
28832;6.220611;3.465562;6.795018;0.000596;-0.000899;-0.006958;-0.760010;0.098389;-0.286621;0.270121;-0.271877;-0.281769;-0.879616
28833;6.238473;3.449021;6.796894;0.000725;0.001155;-0.008847;-0.767578;0.100830;-0.290771;0.270077;-0.271869;-0.281774;-0.879630
28834;6.204900;3.441266;6.808029;0.003537;0.001624;-0.007215;-0.768799;0.099121;-0.288818;0.270081;-0.271846;-0.281791;-0.879631
28835;6.216774;3.454237;6.796448;0.001176;0.000401;-0.009290;-0.759521;0.100098;-0.293213;0.270039;-0.271846;-0.281808;-0.879638
28836;6.216155;3.457446;6.816947;0.003698;0.000220;-0.006491;-0.767090;0.100098;-0.297852;0.270052;-0.271793;-0.281816;-0.879648
28837;6.236400;3.453132;6.796710;0.000139;0.000587;-0.004975;-0.770264;0.106934;-0.282227;0.270072;-0.271731;-0.281798;-0.879666
28838;6.203056;3.444945;6.807848;0.000880;0.000484;-0.006583;-0.769287;0.099854;-0.285400;0.270114;-0.271816;-0.281785;-0.879631
28839;6.223010;3.442908;6.808287;0.000729;0.000420;-0.010393;-0.768555;0.103027;-0.287598;0.270066;-0.271845;-0.281804;-0.879631
28840;6.214223;3.458969;6.796374;0.001748;0.002434;-0.010081;-0.763916;0.096924;-0.288818;0.270063;-0.271846;-0.281807;-0.879631
28841;6.219397;3.430877;6.809893;0.002355;0.001011;-0.008255;-0.769043;0.099121;-0.293457;0.270018;-0.271824;-0.281832;-0.879643
28842;6.233384;3.460327;6.817380;-0.001024;-0.002227;-0.010644;-0.770996;0.097900;-0.293701;0.269968;-0.271809;-0.281836;-0.879662
28843;6.224894;3.476287;6.805235;0.002806;0.000258;-0.008698;-0.775146;0.093262;-0.288086;0.269935;-0.271772;-0.281866;-0.879674
28844;6.232379;3.462674;6.817107;0.001179;-0.000335;-0.010838;-0.762695;0.099365;-0.291260;0.269830;-0.271776;-0.281924;-0.879687
28845;6.209240;3.452264;6.818084;0.000878;0.000482;-0.006586;-0.753906;0.100098;-0.283203;0.269826;-0.271750;-0.281918;-0.879697
28846;6.218881;3.454861;6.849124;0.001336;-0.001005;-0.008571;-0.767090;0.107666;-0.287354;0.269803;-0.271775;-0.281919;-0.879697
28847;6.208604;3.451906;6.797287;-0.001037;-0.000762;-0.007560;-0.756104;0.096680;-0.286133;0.269845;-0.271826;-0.281878;-0.879681
28848;6.230754;3.466379;6.816709;0.002967;-0.001146;-0.007976;-0.766357;0.100830;-0.288086;0.269802;-0.271821;-0.281904;-0.879687
28849;6.216071;3.436904;6.788335;0.000883;-0.000252;-0.008131;-0.771240;0.097900;-0.292725;0.269788;-0.271834;-0.281906;-0.879687
28850;6.199144;3.473947;6.826041;0.001335;-0.001006;-0.008573;-0.765381;0.102051;-0.288330;0.269750;-0.271818;-0.281927;-0.879697
28851;6.209113;3.472474;6.815726;0.000606;-0.002372;-0.010053;-0.765137;0.102051;-0.301025;0.269728;-0.271842;-0.281929;-0.879696
28852;6.227400;3.452026;6.776148;0.003701;-0.000515;-0.008042;-0.764648;0.101562;-0.291748;0.269760;-0.271754;-0.281932;-0.879712
28853;6.218599;3.472348;6.805166;0.002803;0.000256;-0.008703;-0.758545;0.104248;-0.284912;0.269765;-0.271728;-0.281939;-0.879717
28854;6.205610;3.461628;6.816641;0.001170;0.000396;-0.009300;-0.765625;0.098389;-0.297363;0.269778;-0.271749;-0.281924;-0.879711
28855;6.212991;3.448007;6.828647;0.002192;0.001677;-0.010533;-0.763916;0.101562;-0.289551;0.269753;-0.271662;-0.281937;-0.879741
28856;6.216588;3.478004;6.825684;0.002062;0.000359;-0.007096;-0.760742;0.098877;-0.293701;0.269765;-0.271658;-0.281936;-0.879739
28857;6.209712;3.435886;6.830025;0.000730;-0.000322;-0.011949;-0.759521;0.100342;-0.292725;0.269725;-0.271604;-0.281942;-0.879766
28858;6.223587;3.461393;6.796438;0.002473;0.003061;-0.010158;-0.764404;0.093750;-0.292480;0.269724;-0.271535;-0.281943;-0.879787
28859;6.202292;3.467650;6.816601;0.001334;-0.001008;-0.008578;-0.764404;0.094482;-0.289551;0.269654;-0.271500;-0.281970;-0.879811
28860;6.220212;3.451354;6.818411;0.001169;0.000394;-0.009304;-0.771973;0.096436;-0.289307;0.269582;-0.271477;-0.281994;-0.879832
28861;6.211585;3.467234;6.806375;0.000435;-0.000238;-0.009240;-0.772461;0.094238;-0.286377;0.269515;-0.271486;-0.282014;-0.879844
28862;6.200816;3.470801;6.816340;0.002513;-0.000395;-0.007541;-0.766113;0.100830;-0.294678;0.269439;-0.271512;-0.282056;-0.879846
28863;6.208726;3.454823;6.807523;0.001045;-0.001659;-0.007412;-0.773682;0.098145;-0.288086;0.269450;-0.271490;-0.282053;-0.879850
28864;6.228812;3.452978;6.807794;0.002354;0.000272;-0.009813;-0.766113;0.103760;-0.287354;0.269397;-0.271506;-0.282082;-0.879852
28865;6.230140;3.470835;6.826832;0.000727;-0.000325;-0.011956;-0.773438;0.094727;-0.290039;0.269381;-0.271528;-0.282077;-0.879852
28866;6.201009;3.487810;6.793704;0.004266;0.001519;-0.008841;-0.765137;0.093750;-0.294922;0.269324;-0.271507;-0.282127;-0.879860
28867;6.196165;3.462310;6.817128;0.001332;-0.001011;-0.008582;-0.769043;0.092529;-0.296387;0.269275;-0.271454;-0.282154;-0.879882
28868;6.208200;3.475075;6.805465;0.000140;-0.000155;-0.006531;-0.762695;0.096924;-0.294434;0.269229;-0.271398;-0.282173;-0.879907
28869;6.207830;3.473882;6.784845;0.001900;0.001023;-0.009374;-0.761475;0.096191;-0.292969;0.269211;-0.271335;-0.282187;-0.879928
28870;6.225386;3.461999;6.827907;0.001619;-0.000362;-0.009752;-0.760986;0.099365;-0.286865;0.269178;-0.271289;-0.282206;-0.879946
28871;6.212577;3.449029;6.818822;0.001160;0.001126;-0.007765;-0.762451;0.105225;-0.295410;0.269171;-0.271290;-0.282202;-0.879949
28872;6.214211;3.462350;6.796747;0.002345;0.001006;-0.008272;-0.764893;0.099121;-0.298096;0.269235;-0.271244;-0.282186;-0.879949
28873;6.205059;3.482641;6.826029;0.001286;0.002441;-0.011207;-0.772461;0.098633;-0.298584;0.269229;-0.271155;-0.282188;-0.879978
28874;6.224700;3.480998;6.826620;0.003358;0.003023;-0.007961;-0.760986;0.096924;-0.286377;0.269237;-0.271079;-0.282204;-0.879994
28875;6.224174;3.480078;6.806006;0.002798;0.000252;-0.008716;-0.767090;0.091309;-0.285156;0.269202;-0.271080;-0.282225;-0.879997
28876;6.201021;3.469481;6.807092;-0.000480;0.001997;-0.006818;-0.766846;0.091309;-0.291016;0.269116;-0.271091;-0.282239;-0.880016
28877;6.202338;3.486916;6.826320;0.001165;0.000389;-0.009314;-0.761963;0.103516;-0.296387;0.269032;-0.271060;-0.282272;-0.880040
28878;6.210272;3.468816;6.797051;0.000145;-0.000894;-0.008081;-0.766357;0.097656;-0.290771;0.269082;-0.271023;-0.282250;-0.880043
28879;6.209904;3.471571;6.817543;-0.000434;-0.001456;-0.004197;-0.764648;0.100098;-0.281006;0.269080;-0.271039;-0.282240;-0.880042
28880;6.199683;3.472284;6.806881;-0.001167;-0.002089;-0.004132;-0.763916;0.103760;-0.296143;0.269067;-0.271134;-0.282219;-0.880024
28881;6.199558;3.474856;6.827246;0.000472;-0.002961;-0.005081;-0.763184;0.092285;-0.294678;0.269129;-0.271125;-0.282198;-0.880014
28882;6.207680;3.458383;6.818545;-0.001054;0.000698;-0.004482;-0.765381;0.099609;-0.286377;0.269102;-0.271076;-0.282196;-0.880038
28883;6.207572;3.456750;6.797915;0.001485;-0.000943;-0.004769;-0.763916;0.100342;-0.288330;0.269105;-0.271116;-0.282194;-0.880026
28884;6.209531;3.471830;6.796189;0.000025;-0.002945;-0.006186;-0.766602;0.096680;-0.293945;0.269104;-0.271154;-0.282186;-0.880017
28885;6.209225;3.474682;6.816577;0.000591;-0.000911;-0.006978;-0.760986;0.100098;-0.292236;0.269087;-0.271130;-0.282193;-0.880027
28886;6.221182;3.489674;6.825397;0.002230;-0.001783;-0.007929;-0.765381;0.089600;-0.296631;0.269100;-0.271115;-0.282202;-0.880025
28887;6.208763;3.476530;6.816055;0.001937;-0.001696;-0.005213;-0.770508;0.107666;-0.284668;0.269050;-0.271060;-0.282238;-0.880045
28888;6.204521;3.448545;6.818708;0.001497;-0.002416;-0.007864;-0.759033;0.102539;-0.295410;0.269075;-0.271147;-0.282222;-0.880016
28889;6.206468;3.461735;6.796386;0.001770;-0.000294;-0.005940;-0.770752;0.097168;-0.285156;0.269140;-0.271105;-0.282211;-0.880013
28890;6.226518;3.462000;6.817218;0.002961;-0.001151;-0.007995;-0.770508;0.103760;-0.294189;0.269088;-0.271149;-0.282240;-0.880006
28891;6.217925;3.477761;6.805131;0.001148;0.001859;-0.006226;-0.770264;0.100586;-0.297607;0.269133;-0.271131;-0.282220;-0.880004
28892;6.197002;3.481530;6.804600;0.001049;-0.002402;-0.008970;-0.769287;0.093506;-0.287109;0.269132;-0.271107;-0.282226;-0.880010
28893;6.217275;3.477574;6.784252;0.001607;0.000370;-0.008216;-0.765137;0.092773;-0.286621;0.269064;-0.271115;-0.282254;-0.880019
28894;6.204340;3.468879;6.816252;0.002961;-0.001151;-0.007997;-0.764404;0.104736;-0.290527;0.268998;-0.271124;-0.282295;-0.880023
28895;6.206162;3.482269;6.793925;0.001328;-0.001017;-0.008595;-0.762695;0.097656;-0.296143;0.269028;-0.271136;-0.282282;-0.880015
28896;6.203733;3.471041;6.815704;0.001949;-0.003171;-0.008310;-0.764160;0.103027;-0.285400;0.269022;-0.271103;-0.282301;-0.880021
28897;6.211648;3.457146;6.827479;0.000135;-0.000161;-0.006540;-0.759033;0.086914;-0.297119;0.269041;-0.271145;-0.282281;-0.880009
28898;6.223845;3.467745;6.795174;0.002222;-0.001048;-0.006386;-0.765381;0.098633;-0.290527;0.268982;-0.271060;-0.282325;-0.880039
28899;6.221324;3.456400;6.817106;0.002053;0.000353;-0.007114;-0.768799;0.095703;-0.289551;0.268981;-0.271051;-0.282333;-0.880039
28900;6.202375;3.474879;6.814984;0.002071;-0.001859;-0.011758;-0.772949;0.097412;-0.294434;0.268907;-0.271055;-0.282366;-0.880050
28901;6.222462;3.471314;6.794618;0.003075;0.000898;-0.009899;-0.770508;0.102051;-0.285889;0.268875;-0.271022;-0.282393;-0.880061
28902;6.203218;3.492018;6.813185;0.002790;0.000249;-0.008729;-0.759277;0.095459;-0.286377;0.268865;-0.271060;-0.282400;-0.880050
28903;6.200555;3.480988;6.835093;0.002064;-0.001123;-0.010212;-0.764893;0.102783;-0.287109;0.268817;-0.271060;-0.282426;-0.880056
28904;6.218572;3.462889;6.816324;0.000994;0.001045;-0.011604;-0.762451;0.100098;-0.284912;0.268804;-0.271070;-0.282420;-0.880059
28905;6.197464;3.466898;6.815819;0.002505;-0.000401;-0.007560;-0.767334;0.101318;-0.285889;0.268801;-0.271099;-0.282427;-0.880049
28906;6.199089;3.482383;6.814143;0.001326;-0.001020;-0.008601;-0.761963;0.102051;-0.286133;0.268787;-0.271140;-0.282427;-0.880041
28907;6.198750;3.481301;6.793435;0.001156;0.000381;-0.009329;-0.768066;0.096436;-0.284424;0.268788;-0.271156;-0.282419;-0.880038
28908;6.218546;3.481575;6.814525;0.001143;0.001856;-0.006233;-0.766846;0.095947;-0.281006;0.268760;-0.271180;-0.282423;-0.880038
28909;6.234438;3.450884;6.818008;0.001887;0.001014;-0.009396;-0.770752;0.102539;-0.292480;0.268697;-0.271219;-0.282442;-0.880039
28910;6.204973;3.469679;6.805628;0.002896;0.003034;-0.009085;-0.765381;0.099365;-0.291992;0.268709;-0.271193;-0.282441;-0.880044
28911;6.208136;3.499864;6.802736;0.003350;0.002282;-0.009528;-0.769775;0.103027;-0.295166;0.268709;-0.271154;-0.282455;-0.880052
28912;6.215525;3.486286;6.814873;0.000979;0.002518;-0.008512;-0.760498;0.100830;-0.295898;0.268731;-0.271120;-0.282436;-0.880061
28913;6.192443;3.473489;6.795462;0.000701;0.001131;-0.008890;-0.766846;0.105713;-0.293945;0.268754;-0.271065;-0.282424;-0.880075
28914;6.210171;3.459426;6.818076;0.001880;0.001751;-0.007850;-0.765869;0.097656;-0.293213;0.268802;-0.271046;-0.282404;-0.880073
28915;6.203255;3.489703;6.804664;0.000984;0.001778;-0.010063;-0.769775;0.092041;-0.287354;0.268782;-0.271004;-0.282409;-0.880090
28916;6.190213;3.478732;6.816378;0.000694;0.001868;-0.007342;-0.774414;0.093994;-0.287354;0.268728;-0.271000;-0.282429;-0.880101
28917;6.206312;3.450271;6.840151;0.004485;-0.004073;-0.007059;-0.760986;0.087646;-0.293213;0.268676;-0.271045;-0.282484;-0.880085
28918;6.316176;3.330383;6.932461;0.024795;-0.070262;-0.030582;-0.760742;0.094238;-0.290283;0.268342;-0.271393;-0.282904;-0.879945
28919;6.222649;3.508590;6.840143;0.062767;-0.100833;-0.051253;-0.764648;0.089844;-0.292725;0.267908;-0.271863;-0.283692;-0.879679
28920;6.256903;3.527965;6.780968;0.059808;-0.153861;-0.046960;-0.770508;0.087646;-0.284180;0.267353;-0.272713;-0.284578;-0.879298
28921;6.435653;3.445261;6.761072;0.078524;-0.151927;-0.066862;-0.760254;0.098633;-0.277344;0.266661;-0.273510;-0.285648;-0.878914
28922;6.552676;3.616842;6.640113;0.094968;-0.140751;-0.089125;-0.770020;0.096924;-0.285156;0.265954;-0.274174;-0.286820;-0.878539
28923;6.747872;3.494846;6.617615;0.143614;-0.042337;-0.080755;-0.771729;0.089600;-0.281250;0.265661;-0.273988;-0.288115;-0.878262
28924;6.256121;3.945512;6.664995;0.142294;0.018641;-0.062850;-0.762695;0.090820;-0.281250;0.265594;-0.273412;-0.289244;-0.878091
28925;6.191603;3.752666;6.694407;0.119595;0.038956;-0.013070;-0.763428;0.086182;-0.277832;0.265924;-0.272847;-0.290038;-0.877905
28926;6.180317;3.548287;6.737439;0.105460;0.032734;0.018821;-0.772461;0.095215;-0.289307;0.266400;-0.272453;-0.290682;-0.877670
28927;6.218016;3.695614;6.697063;0.089604;0.024094;0.035101;-0.764160;0.084717;-0.288574;0.267006;-0.272172;-0.291165;-0.877413
28928;6.077811;3.586786;6.708117;0.081756;0.023216;0.052112;-0.769287;0.086182;-0.284668;0.267666;-0.271919;-0.291586;-0.877150
28929;6.313127;3.613825;6.659706;0.088730;0.005292;0.061053;-0.772461;0.088623;-0.288818;0.268345;-0.271844;-0.292074;-0.876803
28930;6.005020;3.617382;6.695448;0.080828;-0.023109;0.094319;-0.773926;0.094727;-0.283447;0.269197;-0.272063;-0.292487;-0.876336
28931;5.900228;3.764474;6.678376;0.073114;-0.066914;0.109285;-0.757324;0.091797;-0.285400;0.270047;-0.272704;-0.292893;-0.875740
28932;6.175280;3.809396;6.616199;0.071496;-0.113016;0.115764;-0.763184;0.084717;-0.282715;0.270850;-0.273636;-0.293385;-0.875037
28933;6.307607;3.558371;6.650960;0.083207;-0.121802;0.120572;-0.776123;0.098633;-0.278564;0.271621;-0.274617;-0.293994;-0.874285
28934;6.185260;3.890269;6.860825;0.122270;-0.138121;0.126907;-0.764404;0.094971;-0.281006;0.272530;-0.275719;-0.294876;-0.873358
28935;5.596305;4.453348;6.795463;0.184979;-0.251686;0.180721;-0.767578;0.097656;-0.279785;0.273706;-0.277572;-0.296358;-0.871901
28936;6.275549;4.523511;6.200959;0.152599;-0.351358;0.253412;-0.773193;0.099365;-0.273926;0.275093;-0.280394;-0.297660;-0.870116
28937;7.102245;3.061930;6.142312;0.088136;-0.240854;0.217562;-0.767822;0.107422;-0.276367;0.276319;-0.282489;-0.298327;-0.868821
28938;7.135295;2.885435;6.234908;0.041943;-0.107115;0.103794;-0.776855;0.106201;-0.269043;0.277015;-0.283404;-0.298604;-0.868205
28939;6.366140;2.847174;6.501787;0.016976;-0.050147;-0.025893;-0.773926;0.091797;-0.268799;0.276798;-0.283693;-0.298882;-0.868085
28940;6.743558;2.917650;6.676131;0.024893;-0.037462;-0.150294;-0.771240;0.099121;-0.264893;0.275641;-0.283521;-0.299511;-0.868292
28941;6.712856;2.854680;6.653443;0.054097;-0.005704;-0.232479;-0.770020;0.092529;-0.270020;0.274097;-0.282884;-0.300448;-0.868665
28942;6.613062;3.243809;6.531308;0.076887;0.034591;-0.273445;-0.772705;0.091309;-0.262695;0.272407;-0.281757;-0.301559;-0.869178
28943;6.095204;3.381786;6.435821;0.074220;0.038294;-0.269009;-0.767090;0.090088;-0.272949;0.270733;-0.280679;-0.302622;-0.869680
28944;5.882187;3.267252;6.469841;0.077391;-0.003834;-0.218461;-0.775146;0.085449;-0.276367;0.269396;-0.279957;-0.303681;-0.869958
28945;5.877373;3.317350;6.500603;0.093193;-0.066253;-0.202003;-0.770264;0.081299;-0.278076;0.268033;-0.279687;-0.304956;-0.870020
28946;6.476761;4.030735;6.591013;0.084919;-0.104318;-0.168025;-0.768311;0.074707;-0.275146;0.266813;-0.279767;-0.306177;-0.869940
28947;6.038911;4.042832;6.524644;0.063204;-0.129046;-0.133851;-0.775635;0.073486;-0.265381;0.265693;-0.280160;-0.307221;-0.869789
28948;6.179651;4.631018;6.271596;0.010889;-0.159787;-0.050790;-0.770020;0.079346;-0.261963;0.264928;-0.281171;-0.307754;-0.869508
28949;6.141076;4.241351;6.409135;-0.054883;-0.184385;0.045574;-0.780029;0.068848;-0.262939;0.264712;-0.282757;-0.307634;-0.869102
28950;6.137848;4.229054;6.405444;-0.107077;-0.209524;0.130542;-0.783203;0.080811;-0.254639;0.264812;-0.284837;-0.307000;-0.868616
28951;6.371540;3.956611;6.440934;-0.154195;-0.210032;0.197044;-0.781250;0.088135;-0.251709;0.265331;-0.287249;-0.305854;-0.868067
28952;6.538241;4.042555;6.396506;-0.188271;-0.191914;0.237018;-0.779053;0.088867;-0.254395;0.266144;-0.289706;-0.304321;-0.867541
28953;6.988762;3.684661;6.372983;-0.207453;-0.139101;0.228498;-0.780518;0.095947;-0.250000;0.266987;-0.291752;-0.302557;-0.867213
28954;7.000652;3.699616;6.364523;-0.199223;-0.090467;0.179655;-0.777344;0.097656;-0.248047;0.267631;-0.293326;-0.300857;-0.867075
28955;7.147374;3.118056;6.412738;-0.108525;-0.009192;0.093022;-0.785889;0.097900;-0.248047;0.268069;-0.293886;-0.299845;-0.867100
28956;6.851525;3.353170;6.420133;-0.044510;0.007687;0.031186;-0.781982;0.101318;-0.259521;0.268219;-0.294040;-0.299406;-0.867153
28957;6.577211;3.421638;6.353806;-0.021054;0.002473;-0.008070;-0.779541;0.096436;-0.250244;0.268213;-0.294006;-0.299249;-0.867221
28958;6.424242;3.598046;6.307565;-0.034730;-0.024207;0.002336;-0.782227;0.107666;-0.250000;0.268109;-0.294267;-0.299025;-0.867242
28959;6.639789;3.547490;6.291598;-0.038839;-0.026620;0.003222;-0.782471;0.098633;-0.249023;0.268083;-0.294579;-0.298773;-0.867231
28960;6.573206;3.498451;6.321713;-0.013432;-0.005796;-0.000179;-0.789795;0.097168;-0.256836;0.268063;-0.294665;-0.298667;-0.867244
28961;6.293199;3.717871;6.349562;-0.005896;-0.008482;0.024034;-0.781738;0.098877;-0.251709;0.268222;-0.294777;-0.298561;-0.867194
28962;6.543322;3.585559;6.424554;0.001080;-0.027436;0.048979;-0.784424;0.097412;-0.251709;0.268549;-0.295088;-0.298489;-0.867011
28963;6.738446;3.362706;6.427470;0.000596;-0.056921;0.018937;-0.777832;0.107422;-0.251953;0.268558;-0.295540;-0.298551;-0.866833
28964;6.616460;3.554710;6.391472;0.003551;-0.081008;0.010059;-0.782471;0.093994;-0.248779;0.268561;-0.296132;-0.298716;-0.866573
28965;6.389328;4.017472;6.282704;-0.024516;-0.114061;0.061777;-0.781982;0.100586;-0.240479;0.268640;-0.297155;-0.298616;-0.866233
28966;6.311492;3.969537;6.271385;-0.069844;-0.142920;0.165093;-0.785645;0.104492;-0.244385;0.269310;-0.298792;-0.297998;-0.865674
28967;6.521975;3.647527;6.379471;-0.085679;-0.176755;0.217165;-0.781250;0.102783;-0.241943;0.270256;-0.300809;-0.297213;-0.864951
28968;6.655048;3.512497;6.381266;-0.093030;-0.193642;0.210868;-0.772705;0.114990;-0.232910;0.271064;-0.302930;-0.296425;-0.864228
28969;6.870712;3.485484;6.403486;-0.105879;-0.210122;0.222521;-0.783691;0.117920;-0.241699;0.271970;-0.305260;-0.295562;-0.863419
28970;6.960505;3.252646;6.290813;-0.089694;-0.193465;0.157900;-0.784912;0.116211;-0.226562;0.272497;-0.307220;-0.294940;-0.862770
28971;6.828933;3.285491;6.412540;-0.061453;-0.214208;0.146213;-0.782959;0.115234;-0.219482;0.272869;-0.309307;-0.294582;-0.862028
28972;6.746734;3.511429;6.420631;-0.019535;-0.253451;0.140681;-0.784424;0.115967;-0.229248;0.273171;-0.311581;-0.294620;-0.861100
28973;6.847901;3.557252;6.388288;-0.003793;-0.288426;0.166082;-0.783447;0.126465;-0.222900;0.273648;-0.314050;-0.294790;-0.859993
28974;6.775647;3.508135;6.553660;0.027778;-0.348616;0.205299;-0.781982;0.128906;-0.214355;0.274412;-0.316996;-0.295231;-0.858516
28975;6.884776;3.403545;6.709469;0.093637;-0.439898;0.234465;-0.784912;0.128662;-0.212891;0.275318;-0.320531;-0.296268;-0.856554
28976;7.102136;3.609338;6.687612;0.189345;-0.521537;0.294166;-0.788818;0.129150;-0.205566;0.276679;-0.324543;-0.298005;-0.853998
28977;6.735523;3.809132;7.659704;0.264346;-0.665241;0.384205;-0.789307;0.136719;-0.191406;0.278473;-0.329624;-0.300341;-0.850645
28978;6.985046;3.048654;8.123527;0.300024;-0.973048;0.492050;-0.786133;0.140869;-0.181641;0.280345;-0.337092;-0.303324;-0.846032
28979;6.484001;1.781090;9.460890;0.614879;-1.452281;0.457594;-0.796143;0.143311;-0.167236;0.281623;-0.347043;-0.309701;-0.839246
28980;6.438886;3.347091;9.802732;1.015040;-2.211103;0.375853;-0.806641;0.145752;-0.146240;0.281405;-0.361035;-0.320777;-0.829197
28981;5.815546;3.799889;10.311295;1.212772;-3.121926;0.477965;-0.807373;0.154541;-0.106201;0.279889;-0.380876;-0.334846;-0.815152
28982;5.290527;5.370198;10.143340;1.282372;-4.252767;0.678073;-0.814941;0.162109;-0.047607;0.276548;-0.408380;-0.351032;-0.795942
28983;5.408066;8.461095;9.187225;0.955374;-5.352005;1.406060;-0.815186;0.178223;0.014648;0.273162;-0.445357;-0.364439;-0.770860
28984;5.636405;8.782830;8.135646;0.775463;-6.254004;2.332988;-0.795898;0.217285;0.097412;0.271613;-0.490082;-0.374340;-0.738861
28985;11.255236;7.912259;5.192585;0.571834;-6.558191;3.260078;-0.769531;0.256592;0.184326;0.273158;-0.538357;-0.378647;-0.701557
28986;21.039830;2.638999;3.145081;0.652419;-6.119083;3.215656;-0.734863;0.299316;0.258789;0.275124;-0.581861;-0.381237;-0.663629
28987;19.964364;3.645341;5.755302;1.187078;-5.355149;2.695361;-0.686035;0.346436;0.316895;0.278402;-0.616543;-0.386402;-0.626945
28988;15.218811;7.102604;6.921285;1.782573;-4.908935;2.186467;-0.645996;0.372559;0.361084;0.283019;-0.644460;-0.395392;-0.590116
28989;12.115114;4.496700;5.463155;1.971987;-3.923197;2.291451;-0.614258;0.407959;0.384521;0.291721;-0.666150;-0.401566;-0.556675
28990;13.506233;6.863125;11.339966;1.985687;-2.034350;1.831138;-0.592285;0.445068;0.376465;0.304352;-0.676552;-0.405295;-0.534212
28991;11.142546;9.579899;11.305171;1.071543;0.534239;1.147709;-0.585938;0.456299;0.383057;0.317613;-0.674964;-0.402311;-0.530746
28992;1.533796;7.903050;10.517081;0.029499;1.671385;0.614218;-0.602295;0.466309;0.348145;0.325961;-0.669464;-0.394267;-0.538628
28993;-0.404213;4.470323;8.337248;-0.488059;1.908047;0.259145;-0.612305;0.467041;0.343018;0.330818;-0.662621;-0.385379;-0.550433
28994;0.282632;3.455410;7.083717;-0.543426;2.278480;-0.243285;-0.628174;0.469727;0.321289;0.333971;-0.652544;-0.377698;-0.565679
28995;0.185497;4.213658;6.515663;-0.617206;2.755233;-0.580815;-0.644531;0.452148;0.287109;0.336632;-0.639014;-0.370101;-0.584265
28996;-0.056753;4.482602;6.341549;-0.761051;3.062029;-0.633873;-0.667236;0.448242;0.258057;0.338961;-0.623704;-0.360948;-0.604827
28997;1.700172;4.615357;6.357346;-0.809110;3.265228;-0.736200;-0.697510;0.443848;0.231934;0.340938;-0.606720;-0.351262;-0.626313
28998;4.643672;5.837230;6.272297;-0.980603;3.668560;-1.104199;-0.721436;0.420898;0.189209;0.340850;-0.586586;-0.340952;-0.650761
28999;6.024460;6.482288;6.108447;-1.370361;4.218372;-1.549141;-0.745361;0.397217;0.137451;0.337419;-0.562632;-0.328606;-0.679421
29000;6.261587;5.838588;6.061945;-1.514552;4.492897;-1.945503;-0.774170;0.371094;0.091553;0.331219;-0.535556;-0.315972;-0.709673
29001;7.354499;5.847506;6.197964;-1.256009;4.500415;-2.298028;-0.786865;0.341553;0.027344;0.323462;-0.505805;-0.305828;-0.738920
29002;8.999196;7.114742;6.560809;-1.086509;4.503852;-2.581066;-0.816650;0.305664;-0.036865;0.314041;-0.473876;-0.297330;-0.767082
29003;10.303622;7.838594;6.988829;-1.140942;4.552059;-2.755221;-0.820557;0.270020;-0.103760;0.302759;-0.440391;-0.288459;-0.794471
29004;11.144247;7.753365;7.574142;-1.113545;4.587694;-2.823090;-0.825439;0.223145;-0.162598;0.290565;-0.405513;-0.279342;-0.820426
29005;12.624604;7.800489;8.377268;-0.789789;4.659202;-2.849886;-0.807373;0.182373;-0.240967;0.278818;-0.368439;-0.271781;-0.844185
29006;14.644530;8.549815;9.325663;-0.305217;4.822611;-2.961223;-0.774170;0.144531;-0.310059;0.267524;-0.328032;-0.267017;-0.865753
29007;16.613259;11.218651;9.452759;-0.020640;5.084120;-3.009823;-0.747803;0.105469;-0.380859;0.256607;-0.284231;-0.263256;-0.885472
29008;18.353044;12.388743;8.381793;-0.096013;5.179147;-3.032989;-0.712891;0.054688;-0.437988;0.244916;-0.239138;-0.258174;-0.903425
29009;18.513847;5.868079;5.441961;0.009820;4.875335;-3.305117;-0.660400;0.020508;-0.488770;0.230143;-0.194940;-0.254450;-0.918851
29010;19.548814;2.130744;2.270986;1.298341;3.904898;-4.161343;-0.625732;-0.043213;-0.530518;0.208312;-0.153425;-0.263255;-0.929389
29011;22.974508;6.084596;-0.453518;1.044012;3.021584;-3.706685;-0.584717;-0.094482;-0.555420;0.187329;-0.119885;-0.270530;-0.936669
29012;25.250205;-2.012484;-5.113007;0.679470;2.481161;-2.819710;-0.553711;-0.124268;-0.567627;0.171467;-0.092978;-0.274586;-0.941571
29013;25.418340;-1.850845;-10.276795;0.901862;2.131688;-1.370841;-0.529297;-0.151367;-0.590088;0.166242;-0.071751;-0.279575;-0.942896
29014;23.967598;-4.603033;-13.682875;1.026710;1.291460;0.553392;-0.505859;-0.159668;-0.592041;0.174232;-0.061422;-0.285483;-0.940409
29015;24.027140;-3.290213;-10.920485;1.208361;0.103395;1.716601;-0.509521;-0.156982;-0.585938;0.188595;-0.062902;-0.293893;-0.934934
29016;11.240015;16.315260;1.646516;-4.242276;-1.654870;2.384801;-0.532471;-0.096680;-0.579834;0.200829;-0.088224;-0.261967;-0.939818
29017;-11.500611;-10.560864;26.015343;-3.414404;-2.937068;1.889575;-0.566162;-0.043457;-0.542725;0.206681;-0.120971;-0.238613;-0.941123
29018;7.299043;-1.704191;8.426590;-0.386428;-4.915907;-0.876131;-0.605225;-0.049561;-0.500488;0.189543;-0.158317;-0.244733;-0.937611
29019;28.498208;-12.532204;13.684102;0.044115;-3.701401;1.023311;-0.629883;-0.043457;-0.471924;0.190013;-0.189158;-0.249448;-0.930532
29020;10.083948;-0.716517;9.551210;1.212347;-2.213009;1.246328;-0.635986;-0.029541;-0.442871;0.196982;-0.206943;-0.260292;-0.922291
29021;1.246593;13.142411;5.837564;0.725702;-2.465754;0.559443;-0.663574;-0.032471;-0.412598;0.197177;-0.225877;-0.268853;-0.915324
29022;8.257521;8.217113;5.778853;0.077361;-2.626777;0.182270;-0.678711;-0.037109;-0.383301;0.192833;-0.246145;-0.273333;-0.909680
29023;10.436946;3.172855;6.616745;-0.117945;-1.900390;0.855851;-0.687744;-0.016357;-0.363770;0.194782;-0.262658;-0.273688;-0.904525
29024;9.877814;8.525110;5.768885;-0.428129;-1.344470;0.802895;-0.693848;0.002441;-0.352783;0.196875;-0.275301;-0.270855;-0.901159
29025;9.014430;-0.206108;7.422499;-0.410292;-0.978983;0.619903;-0.693115;0.001465;-0.338135;0.198439;-0.284718;-0.267948;-0.898756
29026;7.117860;3.765506;6.521201;-0.221180;-0.773835;0.478606;-0.703369;0.005127;-0.321777;0.199829;-0.291949;-0.266424;-0.896578
29027;7.912038;3.473684;6.511275;-0.236198;-0.613405;0.340274;-0.705811;0.015137;-0.317871;0.200495;-0.297684;-0.264844;-0.895010
29028;6.664554;2.973448;6.761489;-0.153439;-0.439061;0.231689;-0.711914;0.015381;-0.310303;0.200935;-0.301734;-0.263852;-0.893848
29029;6.684045;3.347112;6.654804;-0.086766;-0.336943;0.172168;-0.708984;0.012207;-0.307373;0.201319;-0.304776;-0.263330;-0.892883
29030;6.797944;3.695365;6.433286;-0.060369;-0.291796;0.148474;-0.709961;0.029541;-0.314453;0.201690;-0.307382;-0.262985;-0.892007
29031;6.941623;3.621972;6.348955;-0.077719;-0.210418;0.150303;-0.710938;0.022705;-0.310303;0.202207;-0.309415;-0.262368;-0.891369
29032;6.559383;3.858022;6.396359;-0.101824;-0.135003;0.197636;-0.712646;0.025635;-0.292725;0.203177;-0.311030;-0.261322;-0.890893
29033;6.629572;3.352143;6.416126;-0.116590;-0.081274;0.235190;-0.714600;0.027344;-0.309814;0.204503;-0.312351;-0.259976;-0.890521
29034;6.691822;3.154319;6.540708;-0.141863;-0.020104;0.179304;-0.709473;0.035889;-0.302490;0.205480;-0.313139;-0.258483;-0.890454
29035;6.760127;3.093802;6.656391;-0.109315;0.016190;0.115384;-0.701172;0.034668;-0.300049;0.206144;-0.313463;-0.257334;-0.890520
29036;6.831997;2.943223;6.779312;-0.050397;-0.040219;0.032145;-0.700195;0.037598;-0.300781;0.206222;-0.313925;-0.256935;-0.890454
29037;6.730350;3.278473;6.507236;0.022534;-0.119341;0.003135;-0.721924;0.036621;-0.306885;0.206105;-0.314787;-0.257287;-0.890075
29038;6.573290;3.346940;6.517559;0.017981;-0.135777;0.014208;-0.718262;0.035156;-0.299805;0.206022;-0.315801;-0.257605;-0.889643
29039;6.636296;3.341910;6.445440;-0.003977;-0.142487;0.034859;-0.709473;0.031250;-0.293945;0.206019;-0.316947;-0.257715;-0.889204
29040;6.717351;3.362174;6.423575;-0.020025;-0.147195;0.048169;-0.721924;0.049316;-0.299072;0.206062;-0.318183;-0.257679;-0.888763
29041;6.610523;3.273290;6.535588;-0.034145;-0.167030;0.061900;-0.716797;0.042236;-0.291504;0.206125;-0.319619;-0.257536;-0.888274
29042;6.616392;3.279412;6.539108;-0.006475;-0.197434;0.075180;-0.718018;0.038330;-0.297119;0.206294;-0.321260;-0.257613;-0.887621
29043;6.737226;3.264382;6.422808;0.028912;-0.205986;0.104745;-0.714600;0.037598;-0.280518;0.206757;-0.322965;-0.257885;-0.886815
29044;6.730499;3.503143;6.243816;0.045296;-0.186083;0.145163;-0.722168;0.040527;-0.288086;0.207604;-0.324581;-0.258135;-0.885954
29045;6.767700;3.435431;6.417299;0.086117;-0.176361;0.187529;-0.715088;0.047607;-0.281006;0.208895;-0.326143;-0.258553;-0.884954
29046;6.751564;3.316757;6.655569;0.171819;-0.215784;0.221760;-0.720947;0.045654;-0.265381;0.210583;-0.327918;-0.259577;-0.883597
29047;6.565684;3.255154;7.161924;0.282167;-0.350976;0.244112;-0.706055;0.045654;-0.276611;0.212442;-0.330539;-0.261585;-0.881581
29048;6.782854;2.766340;7.325076;0.393539;-0.551587;0.231477;-0.724609;0.044189;-0.271484;0.214071;-0.334400;-0.264794;-0.878769
29049;6.525691;1.730175;7.868150;0.703095;-0.819146;0.142678;-0.726562;0.043457;-0.269043;0.215308;-0.339452;-0.270976;-0.874635
29050;6.366536;1.626557;8.845647;1.067118;-1.239001;-0.004212;-0.722900;0.040771;-0.251465;0.215523;-0.346533;-0.280940;-0.868641
29051;6.358385;2.820444;9.072028;1.577424;-1.847594;-0.150737;-0.734375;0.022949;-0.228516;0.214658;-0.356657;-0.296023;-0.859702
29052;5.925638;3.424744;9.575621;1.887805;-2.632311;-0.124766;-0.749512;0.023682;-0.200684;0.212840;-0.371707;-0.314482;-0.847133
29053;4.946654;4.156510;10.883728;1.929957;-3.727817;-0.041456;-0.750244;0.016357;-0.143066;0.208658;-0.394268;-0.334609;-0.830091
29054;3.671617;3.544580;11.644969;1.956203;-5.286132;0.059839;-0.766846;0.021973;-0.068604;0.200559;-0.427163;-0.356709;-0.806267
29055;3.778949;8.067437;11.466338;2.082122;-7.030660;0.154265;-0.769775;0.019531;0.016113;0.187761;-0.470568;-0.381157;-0.773325
29056;5.793184;13.401206;7.352712;1.576097;-7.798858;1.553311;-0.759033;0.034424;0.120605;0.178773;-0.522194;-0.396473;-0.733595
29057;14.132511;11.007316;4.746768;1.402257;-7.725065;2.755437;-0.730469;0.066895;0.212402;0.175784;-0.575148;-0.403537;-0.689538
29058;25.735923;6.726119;3.448552;2.020286;-7.235128;2.994308;-0.684814;0.125488;0.294922;0.177954;-0.622501;-0.410404;-0.642179
29059;21.937443;7.150260;5.953735;2.783213;-6.356546;2.805236;-0.644531;0.166748;0.350586;0.185324;-0.660764;-0.419290;-0.594341
29060;17.738295;8.654491;9.537906;3.828336;-5.605846;2.294633;-0.593506;0.225342;0.399902;0.197852;-0.689459;-0.433425;-0.545567
29061;8.150338;9.607350;11.091669;4.369440;-4.102881;2.408614;-0.553223;0.270508;0.416992;0.218796;-0.708624;-0.445476;-0.501530
29062;23.246871;10.679867;11.095389;3.656295;-2.040285;2.242188;-0.518555;0.315186;0.410645;0.242008;-0.718277;-0.450769;-0.471505
29063;7.631421;13.474394;11.888269;1.876409;1.738566;1.520516;-0.505371;0.339355;0.386475;0.265665;-0.713182;-0.445258;-0.471741
29064;0.210508;10.305793;9.843698;0.290806;2.939273;1.111477;-0.511230;0.340576;0.362549;0.282567;-0.704887;-0.432988;-0.485604
29065;-1.992017;5.293908;6.919346;-0.487249;3.134412;0.709230;-0.507812;0.351318;0.333252;0.293767;-0.695673;-0.419160;-0.504028
29066;-0.836781;3.191210;5.506955;-0.520636;3.334846;-0.061318;-0.517090;0.351562;0.309082;0.302006;-0.682471;-0.408846;-0.525234
29067;0.503315;3.528330;4.937091;-0.401260;3.726089;-0.848724;-0.527344;0.328125;0.280029;0.308527;-0.663948;-0.402174;-0.549764
29068;1.244766;5.123863;5.221992;-0.605424;4.215254;-1.381405;-0.545166;0.339600;0.252197;0.312733;-0.641118;-0.395769;-0.578388
29069;2.469080;4.931094;5.343260;-0.995355;4.669057;-1.668968;-0.560547;0.300049;0.216797;0.314460;-0.615149;-0.387211;-0.610552
29070;4.080032;3.637940;5.415419;-1.120152;5.141764;-1.974336;-0.573486;0.293457;0.171143;0.314879;-0.584892;-0.377577;-0.645127
29071;5.173056;2.798122;5.916635;-0.904120;5.499568;-2.349719;-0.591553;0.258545;0.131104;0.314697;-0.549576;-0.369100;-0.680219
29072;6.341247;2.714865;6.251920;-0.585795;5.649892;-2.662989;-0.607422;0.237793;0.080322;0.313813;-0.510157;-0.362493;-0.714045
29073;8.054896;3.425566;6.835529;-0.221135;5.631618;-2.800749;-0.611816;0.215576;0.033447;0.312724;-0.468074;-0.357696;-0.745093
29074;10.426989;5.183449;7.723013;-0.061397;5.679350;-2.839505;-0.619141;0.193359;-0.021729;0.311273;-0.423861;-0.352929;-0.773882
29075;12.189673;6.528727;8.839246;-0.302771;5.872287;-2.929445;-0.621094;0.171143;-0.070068;0.308037;-0.377533;-0.345407;-0.802045
29076;13.285192;8.184081;10.181635;-0.674240;5.980735;-3.052862;-0.630371;0.144287;-0.115967;0.302156;-0.329913;-0.334459;-0.829456
29077;16.289884;11.473032;11.072769;-1.154404;5.918960;-3.213457;-0.613525;0.118896;-0.179932;0.292692;-0.282418;-0.319730;-0.855771
29078;20.517439;10.495756;9.538245;-1.962851;5.822699;-3.512713;-0.604736;0.087646;-0.230225;0.277945;-0.235830;-0.299117;-0.881850
29079;23.818799;6.536249;5.515059;-1.700521;5.519020;-4.234590;-0.586914;0.061279;-0.282715;0.256676;-0.188234;-0.281517;-0.905225
29080;26.676400;7.728849;1.061573;-1.328516;4.823976;-4.262578;-0.583740;0.023193;-0.324707;0.233314;-0.144397;-0.267346;-0.923710
29081;27.676538;5.435835;-4.458605;-1.081237;3.992634;-3.567255;-0.558838;0.001953;-0.363770;0.213173;-0.107654;-0.255200;-0.936931
29082;27.291514;-0.296290;-9.089059;-0.343266;2.822441;-2.702824;-0.551025;-0.013916;-0.390625;0.197644;-0.080405;-0.249739;-0.944512
29083;29.797797;-1.584294;-14.404842;0.408976;1.749468;-1.713588;-0.535400;-0.036621;-0.405029;0.188049;-0.062363;-0.251133;-0.947460
29084;28.397196;-3.045331;-17.260961;0.385417;0.712097;-0.149830;-0.533447;-0.035400;-0.412109;0.188604;-0.055814;-0.253114;-0.947231
29085;24.102422;-1.439779;-7.900671;-0.342830;-1.009630;1.315046;-0.549072;-0.017090;-0.394531;0.196760;-0.067089;-0.251359;-0.945306
29086;-2.734816;3.735418;11.298428;-2.217047;-2.760592;2.766936;-0.558838;0.025391;-0.370117;0.211496;-0.098220;-0.236717;-0.943179
29087;-2.657763;-11.899075;22.212925;1.238572;-4.497297;0.555154;-0.588135;0.029297;-0.331543;0.207934;-0.132401;-0.253750;-0.935331
29088;24.163271;4.262578;8.401605;0.778569;-4.434712;1.743374;-0.610840;0.043457;-0.273438;0.212893;-0.169195;-0.265353;-0.925007
29089;16.857202;6.730956;9.819923;0.977118;-3.052842;1.053778;-0.615479;0.046387;-0.249023;0.215628;-0.193266;-0.276699;-0.916292
29090;3.465349;7.598178;6.755245;0.818674;-2.789290;0.854650;-0.630127;0.052979;-0.222900;0.217048;-0.215015;-0.286493;-0.908064
29091;5.224475;8.913480;5.927965;0.265368;-3.058309;0.639381;-0.632812;0.063477;-0.190430;0.215064;-0.239141;-0.292789;-0.900463
29092;9.614671;4.610081;5.385121;-0.075088;-2.641863;1.018650;-0.640869;0.074951;-0.148682;0.216132;-0.261529;-0.294855;-0.893280
29093;18.417332;11.371562;4.331188;-0.573550;-1.835562;1.059067;-0.646729;0.081543;-0.131592;0.218301;-0.278797;-0.291545;-0.888605
29094;8.147237;-2.686204;7.915789;-0.412567;-1.036058;0.750295;-0.645996;0.095459;-0.130615;0.220461;-0.289039;-0.288639;-0.885743
29095;7.652022;5.202115;5.662452;-0.409397;-0.580968;0.533979;-0.642578;0.114014;-0.123535;0.222100;-0.295372;-0.285407;-0.884291
29096;7.490408;2.496231;6.566560;-0.335082;-0.302354;0.354864;-0.650146;0.118164;-0.121582;0.223257;-0.299077;-0.282641;-0.883642
29097;6.944484;3.164525;6.626807;-0.209441;-0.156546;0.197745;-0.644043;0.110107;-0.112793;0.223910;-0.301101;-0.280915;-0.883340
29098;6.767348;3.299563;6.557435;-0.090216;-0.135999;0.105548;-0.644043;0.117920;-0.111084;0.224229;-0.302535;-0.280257;-0.882978
29099;6.840546;3.182634;6.548448;0.016382;-0.126723;0.013572;-0.645020;0.106201;-0.111084;0.224160;-0.303485;-0.280597;-0.882561
29100;6.805764;3.919999;6.311474;0.042674;-0.142291;0.016545;-0.641846;0.115967;-0.109375;0.224143;-0.304508;-0.281152;-0.882037
29101;6.702491;4.009628;6.254735;0.001269;-0.149360;0.077613;-0.646240;0.112061;-0.102539;0.224452;-0.305802;-0.281261;-0.881475
29102;6.683965;4.123831;6.150362;-0.048860;-0.138001;0.117741;-0.645264;0.116699;-0.097656;0.224955;-0.307200;-0.280878;-0.880983
29103;6.758623;3.778017;6.193900;-0.102993;-0.092463;0.145421;-0.638672;0.116455;-0.099365;0.225629;-0.308429;-0.279941;-0.880679
29104;6.712974;3.561202;6.334712;-0.088070;-0.090353;0.152638;-0.645996;0.125488;-0.105957;0.226399;-0.309631;-0.279091;-0.880330
29105;6.678767;3.373433;6.436732;-0.051431;-0.142859;0.138987;-0.644531;0.113037;-0.100342;0.227040;-0.311116;-0.278644;-0.879782
29106;6.628903;3.364684;6.465198;-0.020058;-0.253336;0.119329;-0.650879;0.123047;-0.107422;0.227361;-0.313305;-0.278686;-0.878909
29107;6.890301;3.342241;6.161287;0.001004;-0.323851;0.111368;-0.640625;0.127686;-0.088623;0.227511;-0.315949;-0.279034;-0.877812
29108;6.917153;3.316889;6.138724;0.003926;-0.282164;0.108041;-0.643555;0.129883;-0.095947;0.227741;-0.318273;-0.279331;-0.876818
29109;6.914346;3.299672;6.174667;0.019428;-0.245563;0.095495;-0.635742;0.123779;-0.079834;0.228003;-0.320270;-0.279704;-0.875904
29110;6.938106;3.363736;6.131120;0.025193;-0.226693;0.097724;-0.648193;0.128174;-0.083740;0.228340;-0.322121;-0.280076;-0.875018
29111;6.952323;3.278943;6.048698;0.041369;-0.204256;0.091201;-0.653076;0.120117;-0.085938;0.228723;-0.323761;-0.280540;-0.874163
29112;7.035427;3.205945;6.136162;0.063162;-0.185382;0.066918;-0.652100;0.135742;-0.078857;0.229032;-0.325165;-0.281192;-0.873352
29113;7.007962;3.448983;6.130055;0.105769;-0.173969;0.055238;-0.651367;0.128418;-0.075195;0.229397;-0.326375;-0.282162;-0.872491
29114;6.954540;3.334816;6.172224;0.165844;-0.191126;0.075489;-0.649414;0.136230;-0.075684;0.230031;-0.327642;-0.283546;-0.871400
29115;7.022518;3.110133;6.005779;0.216911;-0.189555;0.046822;-0.644531;0.123291;-0.079590;0.230599;-0.328729;-0.285375;-0.870243
29116;6.836893;1.908985;6.892951;0.464847;-0.261963;-0.070231;-0.642090;0.130127;-0.072998;0.230821;-0.329583;-0.289457;-0.868511
29117;6.851302;3.391985;7.026159;0.819861;-0.429468;-0.145662;-0.650391;0.129150;-0.071777;0.231057;-0.330770;-0.296623;-0.865574
29118;6.731842;3.088462;7.737399;1.329074;-0.682833;-0.110516;-0.649414;0.121826;-0.068359;0.232297;-0.332854;-0.307819;-0.860519
29119;6.225037;4.721761;9.074313;1.468396;-1.101307;0.002322;-0.657959;0.115234;-0.064453;0.233612;-0.337893;-0.320448;-0.853561
29120;5.876643;4.417484;9.426071;1.367811;-1.848370;0.215158;-0.649170;0.119141;-0.047852;0.234088;-0.348905;-0.333117;-0.844098
29121;5.376868;4.095629;10.589694;1.507182;-2.760862;0.375136;-0.653320;0.121338;-0.012451;0.233431;-0.366318;-0.347897;-0.830836
29122;4.382072;4.273126;10.518804;1.597528;-4.092311;0.467465;-0.650879;0.122803;0.029297;0.229582;-0.392660;-0.365245;-0.812223
29123;3.698137;5.330348;11.655430;1.592881;-5.597174;0.702860;-0.655273;0.138184;0.081543;0.222295;-0.429168;-0.383976;-0.786741
29124;4.172838;10.587548;10.264704;1.288765;-7.240412;1.435236;-0.632568;0.153320;0.155518;0.212760;-0.477989;-0.399918;-0.752546
29125;8.478055;15.356521;5.206295;0.875587;-7.816979;2.906169;-0.593506;0.183350;0.237793;0.207938;-0.533944;-0.406676;-0.711534
29126;19.674704;12.806944;2.251694;0.953127;-7.568203;4.033544;-0.550537;0.230469;0.302734;0.209937;-0.589418;-0.406415;-0.665838
29127;28.036437;3.888686;3.418082;0.393572;-6.653953;4.776165;-0.492676;0.272217;0.365479;0.215366;-0.640417;-0.395814;-0.621945
29128;20.577978;4.255758;6.560107;2.565085;-6.033667;2.730553;-0.447510;0.311279;0.390137;0.222942;-0.674961;-0.404625;-0.575329
29129;13.491663;9.348201;12.550791;3.616837;-5.209785;2.246641;-0.403809;0.353027;0.418701;0.236146;-0.699735;-0.418306;-0.528796
29130;6.448958;7.663017;11.403613;4.070658;-3.815498;2.686381;-0.368652;0.399414;0.409912;0.258104;-0.716981;-0.427449;-0.486425
29131;21.499478;10.704136;9.635344;3.373074;-1.410921;2.184167;-0.342529;0.432373;0.395996;0.281921;-0.722792;-0.430743;-0.461035
29132;6.046351;13.889628;10.991239;1.614838;1.701156;1.447517;-0.339600;0.463867;0.371582;0.303237;-0.717488;-0.424003;-0.462038
29133;-0.331533;9.654543;9.054231;-0.180554;2.719942;1.163219;-0.348389;0.463867;0.363037;0.316146;-0.711380;-0.409226;-0.475946
29134;-1.838122;5.326598;6.692618;-0.991581;2.971668;0.821930;-0.367432;0.459717;0.347168;0.323534;-0.704763;-0.392312;-0.494699
29135;-0.621058;2.112005;5.467525;-0.848601;3.271366;0.024331;-0.388428;0.461914;0.341797;0.329201;-0.693373;-0.379558;-0.516523
29136;0.983990;2.846525;5.013690;-0.406390;3.756116;-0.971278;-0.407471;0.458740;0.318359;0.334358;-0.674890;-0.372772;-0.542005
29137;1.588617;5.139005;5.309631;-0.468404;4.377094;-1.649392;-0.427979;0.440918;0.302490;0.337587;-0.650790;-0.367302;-0.572360
29138;2.331548;5.157747;5.305874;-0.874303;4.871917;-1.978609;-0.461182;0.429688;0.274414;0.337955;-0.623319;-0.359643;-0.606562
29139;3.682371;3.814143;5.466183;-1.065494;5.222930;-2.271382;-0.500977;0.401123;0.240967;0.336158;-0.592387;-0.350773;-0.642677
29140;5.695608;2.589941;5.852645;-0.848549;5.482373;-2.686784;-0.539795;0.381836;0.198486;0.333113;-0.556768;-0.343514;-0.679002
29141;7.525306;2.534574;6.322562;-0.472500;5.732272;-3.082973;-0.561768;0.361328;0.155518;0.329335;-0.515995;-0.338563;-0.714606
29142;8.872887;3.347787;7.020738;-0.073334;5.887752;-3.186807;-0.602295;0.335938;0.103027;0.326072;-0.471339;-0.334979;-0.747867
29143;10.445188;4.619165;7.949611;0.123066;5.973264;-3.087121;-0.628418;0.300293;0.050537;0.323398;-0.424416;-0.330951;-0.778303
29144;12.204142;5.915634;9.419279;0.071364;6.058172;-3.000775;-0.651855;0.270020;-0.004150;0.320293;-0.375974;-0.325015;-0.806487
29145;14.216922;7.781505;11.347944;-0.088332;6.084065;-3.060744;-0.674805;0.238525;-0.066895;0.315311;-0.326414;-0.317095;-0.832757
29146;18.394939;10.923499;12.966220;-0.512251;5.931799;-3.262656;-0.689453;0.185791;-0.131836;0.306345;-0.277435;-0.306175;-0.857578
29147;24.858395;6.842186;10.384772;-1.056715;5.750756;-4.070117;-0.696045;0.147217;-0.195312;0.288852;-0.228144;-0.292681;-0.882526
29148;28.410969;5.975306;5.516030;-1.063032;5.264645;-4.947792;-0.710205;0.103516;-0.253662;0.262669;-0.179480;-0.280940;-0.905464
29149;29.461687;6.520953;-1.234314;-1.441217;4.309828;-4.844898;-0.704834;0.042725;-0.314697;0.233587;-0.138479;-0.267354;-0.924545
29150;28.144209;2.127948;-8.364991;-1.400953;3.340134;-3.580963;-0.691650;-0.004639;-0.355469;0.211585;-0.107345;-0.253884;-0.937684
29151;27.753196;-5.002105;-12.693547;-0.114818;2.187938;-2.513418;-0.680908;-0.028076;-0.385986;0.196400;-0.085070;-0.251238;-0.943965
29152;29.683960;-4.210625;-17.073349;0.523012;1.153141;-1.388316;-0.679688;-0.053955;-0.411133;0.188285;-0.072214;-0.254397;-0.945841
29153;26.880849;-4.177250;-17.788642;0.098422;-0.006014;0.123592;-0.684570;-0.051025;-0.398193;0.189391;-0.072370;-0.255112;-0.945416
29154;11.767082;-4.940764;-1.113356;-0.159805;-2.168919;1.499342;-0.706055;-0.034180;-0.375977;0.196573;-0.092890;-0.256339;-0.941818
29155;-9.952313;7.247740;30.645731;-0.044166;-3.215947;2.316916;-0.727539;-0.007568;-0.336914;0.207870;-0.123114;-0.259358;-0.935076
29156;11.973643;5.420187;4.429881;-1.163895;-3.799141;3.978118;-0.744629;0.058838;-0.288574;0.229316;-0.163196;-0.252513;-0.925753
29157;19.800219;0.556985;10.322440;0.234112;-4.103314;1.852418;-0.764160;0.084717;-0.226807;0.235224;-0.198196;-0.259478;-0.915456
29158;15.083479;3.475141;8.082594;0.346288;-3.169321;1.081406;-0.777832;0.088623;-0.188232;0.237201;-0.223975;-0.266463;-0.906955
29159;6.892058;4.884087;7.055024;0.237379;-2.758120;0.650140;-0.790527;0.094971;-0.156738;0.236472;-0.245756;-0.272445;-0.899699
29160;13.064662;11.021374;5.057508;-0.375555;-2.046213;1.047468;-0.786621;0.113770;-0.132812;0.238970;-0.264195;-0.271492;-0.894084
29161;12.166621;1.216185;6.359556;-0.598757;-1.341942;0.903725;-0.791992;0.132080;-0.122070;0.241440;-0.277429;-0.267729;-0.890540
29162;7.465267;3.193578;6.535491;-0.426822;-0.768227;0.506212;-0.786865;0.145020;-0.103760;0.242602;-0.285138;-0.264971;-0.888612
29163;7.620394;2.538798;6.583533;-0.324911;-0.489836;0.372147;-0.787598;0.137451;-0.092285;0.243614;-0.290269;-0.262709;-0.887344
29164;7.430659;3.002867;6.443871;-0.176746;-0.203607;0.282954;-0.794434;0.146973;-0.093750;0.244944;-0.292781;-0.261171;-0.886607
29165;7.032269;2.337386;6.883730;-0.095346;-0.056516;0.190074;-0.786621;0.152832;-0.088379;0.246103;-0.293836;-0.260158;-0.886234
29166;6.902595;2.592217;6.852274;-0.032494;0.002810;0.083815;-0.790771;0.157715;-0.089844;0.246758;-0.294094;-0.259745;-0.886088
29167;6.673679;2.750029;6.936981;0.036407;0.016691;-0.001847;-0.792236;0.156250;-0.087402;0.246977;-0.293922;-0.260019;-0.886004
29168;6.579613;3.102968;6.835930;0.094737;0.004684;-0.043072;-0.797119;0.146973;-0.091553;0.247006;-0.293628;-0.260848;-0.885849
29169;6.557527;3.617722;6.553863;0.095034;0.021832;-0.019113;-0.785889;0.144043;-0.083984;0.247248;-0.293259;-0.261583;-0.885687
29170;6.528278;3.659457;6.604892;0.047059;0.060336;0.048242;-0.788330;0.151611;-0.087646;0.247953;-0.292850;-0.261720;-0.885585
29171;6.577461;3.103532;6.784471;0.036164;0.020125;0.061875;-0.783936;0.146240;-0.091309;0.248644;-0.292789;-0.261825;-0.885380
29172;6.504387;3.144093;6.844552;0.055462;-0.027953;0.058411;-0.791260;0.158936;-0.091553;0.249250;-0.293035;-0.262178;-0.885024
29173;6.453718;3.152174;6.813554;0.113720;-0.121771;0.071953;-0.798584;0.150146;-0.090820;0.249890;-0.293881;-0.263122;-0.884283
29174;6.471051;3.156073;6.728746;0.172806;-0.162777;0.080749;-0.782715;0.152832;-0.085938;0.250648;-0.294923;-0.264562;-0.883291
29175;6.557094;3.173843;6.653785;0.221051;-0.201879;0.083919;-0.793213;0.153076;-0.084961;0.251459;-0.296157;-0.266429;-0.882086
29176;6.607756;3.238970;6.530673;0.242543;-0.214224;0.100854;-0.784424;0.152832;-0.082275;0.252416;-0.297472;-0.268434;-0.880761
29177;6.752693;3.217575;6.408356;0.231318;-0.193033;0.111989;-0.790039;0.160645;-0.081055;0.253472;-0.298676;-0.270282;-0.879484
29178;6.772912;3.186520;6.401942;0.204164;-0.146604;0.108484;-0.787354;0.154053;-0.085205;0.254536;-0.299588;-0.271839;-0.878386
29179;6.719416;3.203186;6.370700;0.181764;-0.106891;0.099168;-0.788574;0.160156;-0.091309;0.255563;-0.300233;-0.273168;-0.877455
29180;6.692235;3.241408;6.465264;0.172536;-0.081417;0.101044;-0.784180;0.155518;-0.080811;0.256638;-0.300714;-0.274370;-0.876601
29181;6.719860;3.286950;6.411836;0.168355;-0.071669;0.116921;-0.791504;0.160645;-0.081543;0.257838;-0.301168;-0.275478;-0.875745
29182;6.791652;2.969809;6.493536;0.180423;-0.068154;0.103507;-0.783691;0.156738;-0.081299;0.258977;-0.301538;-0.276699;-0.874896
29183;6.737338;2.949831;6.659429;0.217505;-0.092256;0.066935;-0.787109;0.167725;-0.089355;0.259884;-0.301918;-0.278331;-0.873978
29184;6.710062;3.173353;6.690118;0.256579;-0.143758;0.060586;-0.787842;0.159180;-0.081787;0.260722;-0.302572;-0.280373;-0.872849
29185;6.617157;3.057104;6.762771;0.219182;-0.229036;0.043045;-0.789062;0.163086;-0.067627;0.261135;-0.303883;-0.282368;-0.871626
29186;6.650671;2.088838;6.982564;0.271867;-0.343743;-0.018356;-0.792480;0.166992;-0.067139;0.260962;-0.305765;-0.285148;-0.870113
29187;6.715138;2.637752;7.113252;0.488590;-0.531442;-0.105028;-0.790283;0.157959;-0.071045;0.260257;-0.308323;-0.290117;-0.867776
29188;6.336175;4.048880;7.447250;0.668733;-0.764507;-0.059368;-0.796875;0.164551;-0.059814;0.259765;-0.312267;-0.296760;-0.864260
29189;6.369596;4.042477;7.700487;0.774410;-1.076503;0.071150;-0.797607;0.166504;-0.040527;0.259689;-0.318521;-0.304469;-0.859305
29190;6.293205;4.270800;8.058237;0.895747;-1.461160;0.174410;-0.790039;0.159912;-0.027832;0.259654;-0.327475;-0.313553;-0.852658
29191;6.172723;4.372123;8.154144;1.010614;-1.939105;0.326631;-0.797363;0.159180;-0.007812;0.259690;-0.339882;-0.323984;-0.843846
29192;5.900171;3.772636;9.402278;1.140742;-2.536079;0.447875;-0.798340;0.158691;0.013428;0.259216;-0.356378;-0.336131;-0.832357
29193;5.160821;5.591619;9.360337;1.212048;-3.470961;0.568057;-0.784912;0.172607;0.063477;0.256967;-0.379269;-0.350175;-0.817007
29194;4.712162;5.706473;10.848317;1.140486;-4.580070;0.980770;-0.790771;0.181152;0.122314;0.253728;-0.410572;-0.364345;-0.796433
29195;5.201714;12.900695;8.842683;0.716270;-5.748803;1.825140;-0.771973;0.217773;0.186035;0.250556;-0.452224;-0.374513;-0.769711
29196;8.085643;11.053799;6.608031;0.396709;-6.264617;3.347122;-0.743408;0.251465;0.260986;0.253562;-0.501212;-0.376838;-0.736536
29197;14.386167;6.977019;5.774009;0.698159;-6.477376;3.935313;-0.688721;0.300537;0.343994;0.259808;-0.550818;-0.377589;-0.697514
29198;22.783486;2.104925;6.759270;1.294426;-5.915846;3.542040;-0.639160;0.350342;0.386230;0.267301;-0.592590;-0.380986;-0.657448
29199;18.875180;4.518876;7.098107;3.450449;-5.070329;2.145887;-0.602051;0.382812;0.423584;0.279621;-0.618625;-0.399976;-0.615738
29200;14.083245;11.829173;8.131207;3.905621;-3.741572;2.585240;-0.562744;0.437256;0.427734;0.300207;-0.636573;-0.414848;-0.576673
29201;4.150578;12.378174;6.016899;2.172192;-3.228628;3.475241;-0.522461;0.477783;0.436035;0.316989;-0.658072;-0.414473;-0.542836
29202;21.658030;8.949479;10.609393;0.871240;-0.910467;2.141250;-0.513184;0.507812;0.438721;0.328244;-0.667153;-0.408924;-0.529097
29203;-0.277324;8.695979;10.372553;-0.081936;1.359813;1.205011;-0.516113;0.512451;0.426270;0.337695;-0.665420;-0.398014;-0.533632
29204;-2.317885;4.981265;7.587289;-0.342990;1.263506;0.988914;-0.520996;0.510254;0.411621;0.344343;-0.663989;-0.387319;-0.539008
29205;-1.563687;2.433924;5.799205;-0.103284;1.208125;0.604085;-0.544189;0.519775;0.410156;0.350353;-0.660770;-0.379920;-0.544331
29206;0.758045;3.844050;5.433228;0.068659;1.622046;-0.256956;-0.558350;0.522949;0.389404;0.354657;-0.652338;-0.376768;-0.553823
29207;1.403363;6.094472;5.606904;-0.388225;2.356683;-0.969244;-0.593994;0.508301;0.366211;0.355376;-0.639415;-0.373081;-0.570672
29208;2.062263;5.891262;5.748001;-1.060501;3.030231;-1.482826;-0.637695;0.484375;0.344971;0.351921;-0.623255;-0.366688;-0.594344
29209;3.687351;4.311535;5.414998;-1.391740;3.722539;-2.005716;-0.675537;0.444092;0.318604;0.345868;-0.602338;-0.358924;-0.623488
29210;4.832642;3.338928;4.829557;-1.385811;4.314712;-2.524096;-0.730713;0.406250;0.286133;0.338351;-0.575797;-0.351500;-0.656067
29211;5.943385;3.097659;4.133779;-1.099176;4.663540;-2.715667;-0.776855;0.359863;0.214844;0.331500;-0.544832;-0.344877;-0.688713
29212;7.478017;2.488177;4.479044;-0.495914;4.678527;-2.672874;-0.813232;0.321045;0.158203;0.326977;-0.511105;-0.340766;-0.718148
29213;10.601134;4.426634;4.900792;0.019680;4.829779;-2.510506;-0.847168;0.278076;0.086670;0.325369;-0.474480;-0.337940;-0.744849
29214;11.907589;5.211422;5.524454;0.037839;5.154479;-2.251415;-0.878418;0.238281;0.000977;0.325652;-0.435508;-0.332609;-0.770490
29215;11.334918;4.212989;5.822875;0.110036;5.238273;-2.032630;-0.886963;0.206787;-0.073975;0.327109;-0.395447;-0.325997;-0.793944
29216;11.518718;3.919137;6.061469;0.645637;4.765374;-1.751744;-0.883545;0.181396;-0.154541;0.330239;-0.357018;-0.322645;-0.812023
29217;16.176233;5.541136;5.712363;1.315920;4.453034;-1.179999;-0.882812;0.141602;-0.228271;0.337822;-0.319781;-0.322444;-0.824407
29218;16.865843;2.820629;4.154692;1.929853;4.162828;-0.388106;-0.866455;0.124023;-0.306641;0.351182;-0.284444;-0.324688;-0.830867
29219;17.174849;-3.382851;1.714665;3.113805;3.042426;0.299100;-0.850586;0.097656;-0.362793;0.367212;-0.255410;-0.335946;-0.828892
29220;25.225813;-5.660939;-0.000838;4.032685;2.294336;1.441414;-0.823730;0.087402;-0.407471;0.390923;-0.231420;-0.353132;-0.817877
29221;24.656875;-14.393687;-3.885858;5.028442;2.419117;2.743209;-0.795654;0.083252;-0.457520;0.425885;-0.206311;-0.373698;-0.797751
29222;19.671446;-15.433762;-7.379953;6.609719;1.820714;4.054464;-0.771729;0.076904;-0.497314;0.468917;-0.182939;-0.403326;-0.764185
29223;15.996039;-14.988795;-9.013185;7.215063;0.689654;4.872452;-0.755127;0.067139;-0.530518;0.512022;-0.166273;-0.438029;-0.719943
29224;28.336556;14.722776;-2.460655;6.307483;-0.617876;4.216128;-0.750244;0.068604;-0.529053;0.542813;-0.158151;-0.471754;-0.676602
29225;24.356017;-24.052287;3.249136;-3.203527;2.038266;6.079416;-0.710205;0.161621;-0.544922;0.579970;-0.184780;-0.435655;-0.663096
29226;12.077622;-11.237777;4.134505;0.196795;4.403424;0.948822;-0.675781;0.171387;-0.596436;0.601195;-0.162861;-0.413720;-0.663985
29227;3.252038;-16.359630;13.307341;-1.442189;4.263711;0.059816;-0.629395;0.188477;-0.633301;0.613963;-0.146645;-0.384038;-0.673839
29228;2.457106;14.626652;19.271656;0.707113;1.906785;-0.801280;-0.618896;0.169922;-0.655273;0.616452;-0.129794;-0.379179;-0.677764
29229;6.000205;4.189572;11.699750;-0.130368;0.044609;0.353340;-0.605469;0.180176;-0.655518;0.618549;-0.131382;-0.377829;-0.676300
29230;6.902414;1.044573;6.651042;-0.065931;-0.011228;0.192977;-0.603516;0.182373;-0.661621;0.619627;-0.132446;-0.377298;-0.675401
29231;6.724809;3.439042;6.248233;-0.034423;0.026885;0.101385;-0.607910;0.181152;-0.655762;0.620344;-0.132846;-0.376848;-0.674915
29232;6.815413;2.219386;6.961550;-0.026625;0.056875;0.101192;-0.611572;0.176270;-0.668213;0.621163;-0.133036;-0.376287;-0.674438
29233;6.676328;2.842554;6.966545;0.013762;0.031363;0.012094;-0.614258;0.188232;-0.654053;0.621445;-0.132881;-0.376184;-0.674266
29234;6.569251;3.559546;6.891988;0.008565;0.013475;0.027745;-0.607422;0.183350;-0.658691;0.621753;-0.132903;-0.376126;-0.674010
29235;6.410702;3.417642;6.928023;0.007357;-0.015998;0.070562;-0.605957;0.180908;-0.653076;0.622207;-0.133230;-0.376167;-0.673503
29236;6.511532;3.349213;6.524600;-0.010029;-0.014463;0.106005;-0.605957;0.187012;-0.662109;0.622845;-0.133749;-0.376062;-0.672869
29237;6.547188;2.837587;6.672487;-0.015589;0.004835;0.070632;-0.605957;0.188232;-0.645996;0.623338;-0.134079;-0.375866;-0.672457
29238;6.554874;2.711926;6.832480;0.011993;-0.005058;0.020233;-0.600342;0.187744;-0.660156;0.623548;-0.134162;-0.375931;-0.672209
29239;6.586244;2.790548;6.738206;0.049290;-0.015510;-0.045695;-0.608398;0.180420;-0.662354;0.623397;-0.133904;-0.376334;-0.672175
29240;6.532710;3.022368;6.708734;0.076252;-0.011131;-0.086576;-0.607910;0.173584;-0.657715;0.623061;-0.133352;-0.376909;-0.672273
29241;6.533718;3.462162;6.526718;0.045774;0.010886;-0.069569;-0.609131;0.185547;-0.660645;0.622855;-0.132889;-0.377181;-0.672403
29242;6.489873;3.409486;6.554522;0.024269;0.027718;-0.054215;-0.607422;0.183594;-0.659180;0.622764;-0.132491;-0.377228;-0.672540
29243;6.429621;3.495331;6.528696;0.016371;0.027976;-0.043146;-0.604248;0.188721;-0.654541;0.622727;-0.132167;-0.377217;-0.672644
29244;6.429561;3.417324;6.603915;0.004710;0.027026;-0.029100;-0.603760;0.180176;-0.661133;0.622753;-0.131952;-0.377130;-0.672711
29245;6.351414;3.500371;6.741156;0.003742;0.012159;-0.005587;-0.612549;0.171875;-0.660156;0.622862;-0.131900;-0.377089;-0.672644
29246;6.409177;3.158686;6.725168;0.016420;-0.015744;-0.004026;-0.614990;0.172119;-0.654053;0.622905;-0.131943;-0.377262;-0.672498
29247;6.419271;3.179957;6.816002;0.037246;-0.042703;-0.018516;-0.609375;0.191650;-0.656494;0.622806;-0.131983;-0.377708;-0.672332
29248;6.435411;3.340960;6.685671;0.030947;-0.052997;-0.002283;-0.611084;0.179688;-0.654785;0.622757;-0.132165;-0.378153;-0.672091
29249;6.397267;3.468312;6.623111;0.025617;-0.060033;0.013789;-0.602295;0.180176;-0.661865;0.622770;-0.132463;-0.378588;-0.671776
29250;6.407852;3.417935;6.686135;0.026027;-0.080501;0.039717;-0.620117;0.184570;-0.662842;0.622863;-0.132956;-0.379102;-0.671302
29251;6.525794;3.240783;6.734077;0.040371;-0.096025;0.039181;-0.614014;0.172363;-0.659668;0.622919;-0.133459;-0.379777;-0.670768
29252;6.432711;3.336368;6.788640;0.050708;-0.111860;0.041706;-0.610840;0.174072;-0.660889;0.622950;-0.134004;-0.380589;-0.670170
29253;6.466068;3.250558;6.821514;0.074520;-0.159037;0.034512;-0.620850;0.178223;-0.655518;0.622816;-0.134665;-0.381786;-0.669481
29254;6.371756;3.450416;7.048708;0.011530;-0.296423;0.032011;-0.617188;0.180420;-0.641846;0.622157;-0.136411;-0.383346;-0.668849
29255;6.631493;3.256595;6.735115;-0.053805;-0.358810;0.040397;-0.621826;0.178955;-0.647949;0.621265;-0.138869;-0.384852;-0.668307
29256;6.672286;3.336373;6.673241;-0.084752;-0.364959;0.029916;-0.619873;0.181641;-0.646973;0.620253;-0.141486;-0.386227;-0.667905
29257;6.637434;3.482846;6.703909;-0.152958;-0.361429;0.051438;-0.623047;0.185059;-0.642334;0.619285;-0.144502;-0.387175;-0.667608
29258;6.307007;3.334194;6.981491;-0.185226;-0.473334;0.069122;-0.631104;0.185059;-0.638916;0.618005;-0.148363;-0.388494;-0.667181
29259;6.708603;3.281492;6.534769;-0.201688;-0.720141;0.082979;-0.641602;0.184814;-0.619873;0.615964;-0.153720;-0.390964;-0.666412
29260;6.939457;2.594555;6.356866;-0.083019;-0.698192;0.056662;-0.644531;0.194824;-0.615479;0.613977;-0.158253;-0.394001;-0.665396
29261;7.230453;1.887256;6.111784;0.094329;-0.596128;-0.071165;-0.654297;0.186768;-0.608887;0.611831;-0.160889;-0.397655;-0.664566
29262;7.182834;1.883221;6.180246;0.272527;-0.506797;-0.254729;-0.663574;0.181885;-0.609619;0.609189;-0.161508;-0.402078;-0.664182
29263;7.064461;1.425647;6.986488;0.521835;-0.535472;-0.467301;-0.663086;0.182373;-0.605713;0.605587;-0.160301;-0.408296;-0.663975
29264;6.822376;1.392980;8.241796;1.013985;-0.801759;-0.754171;-0.676270;0.151611;-0.599365;0.600086;-0.157090;-0.418920;-0.663118
29265;6.170753;2.608202;9.703887;1.534819;-1.351321;-0.844370;-0.693359;0.129395;-0.596191;0.592704;-0.153955;-0.435181;-0.660013
29266;5.143698;3.937233;10.262143;2.259374;-2.227321;-0.535447;-0.718262;0.107910;-0.565430;0.584458;-0.153096;-0.459121;-0.651290
29267;6.704183;1.449949;9.903151;3.652918;-3.099749;-0.135089;-0.756836;0.060547;-0.529541;0.576146;-0.151534;-0.493817;-0.633433
29268;9.585574;1.263653;7.946416;6.109682;-2.990715;-0.065841;-0.772949;0.022461;-0.502441;0.570367;-0.137525;-0.539661;-0.603767
29269;11.434730;6.189937;5.778276;7.802777;-1.484833;-0.210079;-0.771729;-0.062012;-0.492676;0.570409;-0.106730;-0.584966;-0.566619
29270;13.284379;6.799366;1.185271;8.554283;-0.271670;0.142052;-0.780518;-0.124268;-0.481934;0.575994;-0.067849;-0.624963;-0.522540
29271;13.159480;6.155323;-0.895595;10.262893;0.834734;-0.184021;-0.768066;-0.208740;-0.473877;0.583303;-0.013852;-0.663364;-0.468523
29272;10.853577;20.110047;0.392146;8.871082;1.933328;0.831654;-0.758057;-0.271484;-0.473633;0.596658;0.032178;-0.686534;-0.414289
29273;12.237083;12.944045;10.184735;5.220170;3.068101;3.162349;-0.739258;-0.274658;-0.496094;0.622826;0.050532;-0.688997;-0.367175
29274;6.501521;-2.917045;10.223000;4.617171;5.407776;4.630160;-0.712402;-0.254639;-0.540527;0.664576;0.064276;-0.675248;-0.313444
29275;-0.745519;1.345268;9.400784;5.228871;5.359009;4.447047;-0.672607;-0.257568;-0.589600;0.701838;0.081981;-0.659789;-0.255698
29276;-0.736612;2.148959;9.431435;4.158577;4.781441;3.584226;-0.624756;-0.260986;-0.618652;0.731830;0.097059;-0.641792;-0.207624
29277;-0.438131;0.035133;10.104812;3.145875;4.291146;2.327696;-0.584961;-0.275391;-0.662598;0.755466;0.111058;-0.622136;-0.172870
29278;0.021827;-1.132922;10.416825;2.528773;3.864722;0.977629;-0.538818;-0.291016;-0.696045;0.774053;0.127346;-0.601801;-0.149867
29279;2.190311;-1.796576;10.985329;2.093016;3.567046;-0.107186;-0.503662;-0.313965;-0.712402;0.789470;0.146975;-0.580541;-0.134564
29280;4.663868;-1.653734;11.412661;1.539737;3.583046;-0.677700;-0.452637;-0.346436;-0.740234;0.804019;0.165322;-0.557160;-0.125678
29281;6.373520;-2.974398;11.320852;1.064425;3.726554;-0.685044;-0.399170;-0.362793;-0.766357;0.819017;0.180553;-0.531589;-0.118427
29282;8.454901;-3.815026;10.911150;0.944419;3.960866;-0.350466;-0.336670;-0.375732;-0.794434;0.834589;0.193246;-0.504200;-0.109087
29283;10.269843;-2.867912;10.359170;0.887820;4.325324;0.175867;-0.276855;-0.385986;-0.803223;0.851160;0.203235;-0.474421;-0.095636
29284;10.987797;-2.085908;9.753895;0.795285;4.692913;0.740750;-0.206299;-0.399170;-0.831299;0.868470;0.210192;-0.442191;-0.077753
29285;10.792258;-1.296362;9.084817;0.799394;4.972603;1.154534;-0.142578;-0.396240;-0.845215;0.885506;0.215396;-0.407848;-0.056062
29286;10.374029;0.314966;8.331559;0.786346;5.095374;1.472739;-0.070312;-0.406006;-0.845703;0.901323;0.218690;-0.372495;-0.032227
29287;10.193057;0.851999;7.637747;0.816091;5.042051;1.677150;0.001465;-0.415039;-0.838867;0.915107;0.221077;-0.337134;-0.006643
29288;11.330991;1.268151;6.469593;1.006000;4.843581;1.696126;0.063965;-0.419678;-0.834229;0.926124;0.224325;-0.302655;0.019321
29289;12.640726;1.571048;4.810260;1.097577;4.494709;1.744796;0.117188;-0.433594;-0.829590;0.934364;0.227572;-0.270504;0.044745
29290;13.780273;0.526328;2.995936;1.138079;3.936779;1.982359;0.155762;-0.456299;-0.801514;0.939691;0.230314;-0.242784;0.070652
29291;15.423226;0.359160;1.283706;1.293565;3.434203;2.181331;0.197266;-0.476318;-0.780273;0.942258;0.233893;-0.218900;0.097603
29292;14.939745;1.513022;-0.433924;1.251584;2.835685;2.371325;0.212402;-0.503906;-0.769043;0.942546;0.236944;-0.199912;0.124498
29293;14.965753;1.910318;-2.181155;1.137496;2.016078;2.613326;0.218018;-0.531250;-0.746582;0.940536;0.239284;-0.187812;0.151200
29294;14.905443;0.354345;-2.788585;1.083255;1.197554;2.768531;0.214111;-0.540283;-0.723145;0.936402;0.241807;-0.182368;0.177266
29295;15.817416;0.583096;-2.410497;0.732365;0.391868;2.795389;0.205322;-0.565674;-0.726074;0.931107;0.242566;-0.183708;0.201127
29296;16.049058;0.229203;-2.518976;0.110990;-0.257298;2.676809;0.169922;-0.575439;-0.723877;0.925763;0.239645;-0.190812;0.221639
29297;14.239114;1.386164;-2.193793;-0.291062;-0.967311;2.363960;0.141846;-0.576660;-0.727295;0.920215;0.235331;-0.203434;0.237568
29298;7.499518;-8.235712;2.547191;3.024289;-1.455960;1.795330;0.111328;-0.619873;-0.706543;0.907790;0.258202;-0.211994;0.253588
29299;-8.115838;22.551921;30.541565;2.214844;-0.237787;1.301268;0.091064;-0.650879;-0.696045;0.899636;0.273052;-0.211837;0.266875
29300;-3.051021;18.380394;11.989525;-0.118760;-2.157018;0.936506;0.052246;-0.651367;-0.697754;0.893844;0.275200;-0.230311;0.268822
29301;21.300055;4.494558;6.931951;-0.787730;-2.465076;0.548770;0.024658;-0.640381;-0.704590;0.889474;0.273695;-0.251574;0.265779
29302;5.424902;-9.934369;8.952697;0.069688;-1.277483;0.620610;0.002686;-0.635010;-0.699707;0.885202;0.275683;-0.262244;0.267664
29303;9.378723;11.651123;5.568559;0.054703;-1.137462;0.720862;-0.016846;-0.643311;-0.702881;0.880929;0.276978;-0.272105;0.270566
29304;6.263090;1.885914;6.081978;-0.226574;-0.853713;0.526500;-0.030762;-0.643066;-0.704590;0.878297;0.275997;-0.280046;0.272021
29305;8.914759;2.598651;6.795655;-0.191975;-0.479459;0.440246;-0.045654;-0.641113;-0.708496;0.876605;0.274609;-0.284954;0.273780
29306;5.394013;4.644095;6.602638;-0.210540;-0.468880;0.399697;-0.055664;-0.632812;-0.707031;0.875045;0.273151;-0.289728;0.275215
29307;7.316682;3.237782;6.381377;-0.223096;-0.402072;0.413302;-0.067627;-0.633057;-0.705322;0.873621;0.271408;-0.294068;0.276855
29308;7.639475;3.420686;6.372269;-0.242133;-0.298794;0.382010;-0.074219;-0.620850;-0.707520;0.872537;0.269367;-0.297617;0.278469
29309;6.659346;3.116636;6.809727;-0.221105;-0.214350;0.333079;-0.080322;-0.627197;-0.714844;0.871722;0.267392;-0.300398;0.279934
29310;7.146951;2.330180;6.949486;-0.138758;-0.155157;0.233724;-0.083740;-0.625488;-0.709961;0.871090;0.266128;-0.302328;0.281025
29311;6.957701;2.679720;6.836141;-0.064796;-0.068654;0.130087;-0.083008;-0.626221;-0.713135;0.870746;0.265464;-0.303222;0.281758
29312;6.802496;3.186129;6.669140;-0.053187;-0.025262;0.114760;-0.083740;-0.622559;-0.721191;0.870521;0.264818;-0.303741;0.282498
29313;6.920450;2.653780;6.721010;-0.069229;0.036302;0.101084;-0.080078;-0.613525;-0.700195;0.870529;0.263935;-0.303831;0.283203
29314;6.705098;2.621308;6.838134;-0.080663;0.036073;0.055411;-0.082520;-0.614746;-0.707520;0.870659;0.263095;-0.303840;0.283576
29315;6.517706;2.984169;6.976197;-0.084380;-0.032650;0.059241;-0.090820;-0.615723;-0.715088;0.870615;0.262378;-0.304366;0.283809
29316;6.632668;2.673354;6.930239;-0.031001;-0.110541;0.064393;-0.089355;-0.622803;-0.712158;0.870245;0.262220;-0.305343;0.284043
29317;6.675735;2.906613;6.675879;0.000585;-0.169596;0.053291;-0.086182;-0.620605;-0.718262;0.869672;0.262467;-0.306641;0.284172
29318;6.628399;3.200342;6.713434;-0.008948;-0.190915;0.088247;-0.090820;-0.620361;-0.716064;0.868990;0.262594;-0.308200;0.284451
29319;6.650122;3.120159;6.738985;-0.042782;-0.220518;0.140221;-0.102051;-0.610596;-0.711914;0.868178;0.262415;-0.310165;0.284960
29320;6.701485;3.025267;6.770357;-0.098312;-0.248648;0.182551;-0.095703;-0.615234;-0.715820;0.867310;0.261790;-0.312557;0.285564
29321;6.761910;2.719960;6.650030;-0.090894;-0.256382;0.233219;-0.108398;-0.616455;-0.714844;0.866281;0.261100;-0.315097;0.286527
29322;6.828836;2.266415;6.718464;-0.038256;-0.274196;0.211981;-0.115479;-0.612793;-0.719482;0.865126;0.260895;-0.317585;0.287454
29323;6.847592;2.556031;6.592040;-0.010942;-0.295762;0.182980;-0.112549;-0.603271;-0.709717;0.863923;0.261006;-0.320103;0.288179
29324;6.835835;2.648305;6.570321;0.006725;-0.295515;0.193976;-0.119629;-0.608398;-0.716064;0.862653;0.261207;-0.322600;0.289016
29325;6.845123;2.644687;6.878498;0.006437;-0.326272;0.188620;-0.130371;-0.608887;-0.717773;0.861305;0.261493;-0.325305;0.289744
29326;6.936144;2.422772;6.869409;-0.007946;-0.412095;0.202843;-0.144531;-0.610840;-0.707275;0.859711;0.261842;-0.328686;0.290348
29327;6.989664;2.100191;6.768933;0.059420;-0.489843;0.193343;-0.140625;-0.619629;-0.711914;0.857751;0.262900;-0.332423;0.290933
29328;7.011562;2.427261;6.248430;0.109015;-0.543628;0.168559;-0.149902;-0.609863;-0.713867;0.855578;0.264504;-0.336364;0.291348
29329;6.846702;1.273043;7.113594;0.143146;-0.514089;0.067011;-0.148926;-0.608154;-0.701172;0.853654;0.266541;-0.339792;0.291156
29330;6.803521;2.433325;8.078926;0.332262;-0.782039;-0.095895;-0.166504;-0.615234;-0.706055;0.850914;0.271029;-0.344289;0.289747
29331;6.610124;4.084489;8.440247;0.403812;-1.220158;0.081274;-0.179932;-0.620850;-0.684082;0.846261;0.276547;-0.352091;0.288784
29332;6.636506;3.522357;8.844470;0.395779;-1.779983;0.283783;-0.204346;-0.629883;-0.683838;0.839337;0.282732;-0.364248;0.287923
29333;6.458126;3.972203;9.277662;0.474512;-2.459046;0.463315;-0.238037;-0.633301;-0.671143;0.829453;0.290453;-0.381261;0.286854
29334;6.161392;4.267501;10.322329;0.459139;-3.341359;0.734794;-0.280762;-0.632568;-0.645508;0.815630;0.299130;-0.404816;0.285295
29335;5.544719;3.834390;10.585397;0.629962;-4.504210;1.033534;-0.335205;-0.636719;-0.611816;0.795799;0.310386;-0.436122;0.283130
29336;4.292746;3.343713;11.690071;0.814450;-5.945643;1.303506;-0.408447;-0.618652;-0.572266;0.767979;0.324663;-0.476320;0.279144
29337;4.831176;4.876088;10.637832;1.075837;-7.552510;1.632094;-0.497070;-0.626465;-0.503418;0.729736;0.341890;-0.525453;0.272940
29338;9.744488;9.143532;6.149585;1.037575;-8.243559;2.583761;-0.579590;-0.608887;-0.415771;0.682965;0.354712;-0.579054;0.269138
29339;28.191529;1.479980;0.079946;1.832244;-7.727076;2.550913;-0.649902;-0.600830;-0.323730;0.632977;0.369294;-0.624919;0.269144
29340;23.216943;11.469061;4.772855;1.360417;-6.699321;3.206020;-0.700439;-0.572998;-0.235352;0.585539;0.374069;-0.665707;0.272123
29341;21.797163;9.623003;8.723985;1.254350;-5.990947;3.471713;-0.745605;-0.515869;-0.155762;0.539591;0.373913;-0.701633;0.277021
29342;14.386288;4.145120;11.042599;1.844068;-5.057802;2.992002;-0.783203;-0.485596;-0.072510;0.496745;0.375938;-0.728378;0.285272
29343;8.069617;4.217808;12.100007;2.895271;-3.446825;1.970947;-0.789062;-0.455811;-0.009277;0.461743;0.383903;-0.741172;0.300125
29344;20.973882;11.592929;12.505387;3.031491;-1.234287;1.065571;-0.786133;-0.447754;0.014893;0.441659;0.392002;-0.741267;0.319054
29345;6.466363;13.186431;13.267526;1.397913;1.426256;0.415679;-0.792969;-0.436035;-0.004150;0.444836;0.390840;-0.733339;0.334033
29346;1.751058;8.456725;11.179498;-0.006346;2.322767;-0.105335;-0.775635;-0.438477;-0.035889;0.459373;0.385045;-0.724027;0.341323
29347;0.421915;3.987059;8.963130;-0.627688;2.636095;-0.806045;-0.756348;-0.454102;-0.083984;0.479575;0.380029;-0.712674;0.343049
29348;2.278831;2.244942;7.661089;-0.667406;2.990951;-1.586420;-0.725342;-0.464111;-0.128418;0.503906;0.378204;-0.697030;0.342329
29349;3.048553;2.165458;7.207529;-0.640084;3.662343;-2.088982;-0.697021;-0.487793;-0.189697;0.532952;0.377086;-0.676156;0.341440
29350;3.492831;1.855402;7.214187;-0.628994;4.360402;-2.165826;-0.644287;-0.510254;-0.250000;0.565324;0.373888;-0.650893;0.341987
29351;4.707062;0.780755;7.115111;-0.382753;4.990399;-2.146677;-0.589111;-0.529297;-0.306152;0.599221;0.369224;-0.620782;0.345309
29352;6.254169;0.803559;6.908105;0.130321;5.612991;-2.173676;-0.523926;-0.546631;-0.357666;0.633444;0.364592;-0.584557;0.352298
29353;7.003985;2.099626;6.904851;0.527742;6.176920;-2.149727;-0.449219;-0.566650;-0.401855;0.667365;0.359242;-0.542628;0.362111
29354;7.533334;2.544167;7.113767;0.697774;6.448545;-2.029758;-0.366943;-0.578369;-0.441650;0.699543;0.352319;-0.497327;0.373065
29355;8.898553;3.090524;7.682717;0.904685;6.400544;-1.945819;-0.292969;-0.595459;-0.459961;0.728393;0.345233;-0.450298;0.384044
29356;11.442545;3.709601;8.934543;1.052959;6.351395;-2.114029;-0.208984;-0.592773;-0.460693;0.754821;0.338691;-0.401158;0.393200
29357;14.076296;4.098930;10.342841;1.019568;6.388454;-2.660957;-0.118652;-0.606934;-0.463379;0.780738;0.332477;-0.349014;0.397614
29358;17.476704;5.930779;10.162293;0.791082;6.427695;-3.296762;-0.036621;-0.609131;-0.458496;0.806716;0.325265;-0.294370;0.395926
29359;20.263776;4.886187;8.784080;0.117956;6.078542;-3.971243;0.053711;-0.602051;-0.449951;0.832905;0.315085;-0.241391;0.385644
29360;24.416628;3.592040;5.150705;-0.572903;5.349217;-4.631802;0.130127;-0.585449;-0.433594;0.858562;0.302600;-0.193114;0.366075
29361;26.763721;0.691053;0.656002;-1.088399;4.484234;-4.781113;0.193848;-0.562744;-0.417236;0.881758;0.288269;-0.151628;0.341193
29362;27.375994;0.465404;-3.807726;-1.256668;3.497384;-4.270309;0.248779;-0.534180;-0.418701;0.900327;0.274070;-0.118749;0.316538
29363;27.440137;1.732396;-8.208114;-1.714342;2.567863;-2.878034;0.286865;-0.508057;-0.416504;0.913792;0.257030;-0.097085;0.299156
29364;27.342208;-2.593036;-11.936577;-1.620590;1.617771;-1.466167;0.307129;-0.492920;-0.420166;0.921970;0.241719;-0.085424;0.290251
29365;27.472558;-5.547406;-15.000238;-0.286426;0.695998;-0.635071;0.314697;-0.482910;-0.407959;0.924529;0.238247;-0.079330;0.286690
29366;25.465931;-1.474123;-13.958308;0.571705;-0.281181;0.252611;0.309570;-0.493896;-0.412842;0.922573;0.243147;-0.080536;0.288535
29367;16.720099;8.037924;-3.245304;-1.888667;-1.917161;1.345321;0.287109;-0.469971;-0.434570;0.921577;0.232280;-0.102478;0.293668
29368;-5.004449;-0.840508;20.710790;-2.564028;-2.840896;2.263506;0.251221;-0.465088;-0.454590;0.917936;0.217496;-0.134870;0.303147
29369;-0.531740;-1.704138;16.640420;-0.674257;-4.581168;1.023264;0.204346;-0.457520;-0.480225;0.910701;0.222610;-0.173328;0.301704
29370;31.182829;-1.998493;8.225390;-0.713870;-4.171321;1.694855;0.163086;-0.449951;-0.497803;0.901074;0.225074;-0.209746;0.305635
29371;9.829436;0.941145;8.592865;0.158771;-2.586091;0.648827;0.135498;-0.452148;-0.494873;0.894369;0.231666;-0.229926;0.305891
29372;5.428519;1.683478;7.105595;0.251077;-2.607883;0.504053;0.112061;-0.453369;-0.495117;0.887368;0.239163;-0.249645;0.305050
29373;15.281996;2.089896;7.534288;0.205315;-2.115570;0.364811;0.085205;-0.465576;-0.492920;0.881474;0.245259;-0.265462;0.303943
29374;11.073434;8.368997;5.047748;-0.035794;-1.061006;0.285599;0.073975;-0.462158;-0.497070;0.878424;0.247040;-0.273942;0.303806
29375;7.839135;0.893809;7.019392;-0.245197;-0.777062;0.286195;0.072266;-0.462891;-0.502441;0.876394;0.246558;-0.280866;0.303737
29376;7.122049;2.869992;6.887780;-0.185530;-0.521209;0.067345;0.057617;-0.456787;-0.495361;0.875361;0.246365;-0.285312;0.302727
29377;7.095176;2.528654;6.758365;-0.146056;-0.365527;0.024108;0.061279;-0.454346;-0.494141;0.874712;0.246166;-0.288429;0.301810
29378;6.884990;2.382975;7.010698;-0.109459;-0.218473;0.020431;0.070557;-0.453125;-0.495361;0.874344;0.245870;-0.290373;0.301253
29379;6.550568;2.378654;7.151353;-0.052415;-0.175127;-0.002608;0.051270;-0.452637;-0.499756;0.874019;0.245936;-0.291810;0.300756
29380;6.818369;2.368770;6.974441;0.007497;-0.170039;-0.020181;0.052734;-0.444092;-0.507812;0.873625;0.246466;-0.293022;0.300287
29381;6.898274;2.174150;6.971279;0.045043;-0.134460;-0.054522;0.061035;-0.451416;-0.505615;0.873325;0.247263;-0.293809;0.299735
29382;6.791382;2.625161;6.860295;0.019419;-0.113641;-0.090442;0.056152;-0.454834;-0.503906;0.873217;0.247909;-0.294434;0.298902
29383;6.629426;2.822421;6.819033;-0.050440;-0.096269;-0.082710;0.060303;-0.448975;-0.507324;0.873275;0.247983;-0.295121;0.297990
29384;6.577056;2.921616;6.746346;-0.084841;-0.080723;-0.048740;0.060547;-0.453369;-0.497803;0.873357;0.247685;-0.295851;0.297273
29385;6.526128;2.863532;6.841350;-0.087064;-0.073635;0.000881;0.054199;-0.448975;-0.499756;0.873338;0.247230;-0.296635;0.296926
29386;6.458058;2.917377;6.843363;-0.054133;-0.105744;0.064347;0.051025;-0.447266;-0.506836;0.873014;0.246938;-0.297702;0.297057
29387;6.435615;2.696104;6.896517;0.019395;-0.182988;0.125185;0.045898;-0.449219;-0.493652;0.872194;0.247219;-0.299272;0.297653
29388;6.434993;2.770484;6.795225;0.080388;-0.242617;0.190080;0.044678;-0.453613;-0.502441;0.870934;0.247929;-0.301255;0.298749
29389;6.679317;2.525641;6.700769;0.111712;-0.263759;0.251393;0.045898;-0.451416;-0.504883;0.869396;0.248762;-0.303437;0.300323
29390;6.852379;2.025846;6.788632;0.130461;-0.261851;0.207090;0.046387;-0.450928;-0.496826;0.867927;0.249835;-0.305463;0.301626
29391;6.885631;2.092256;6.810919;0.153258;-0.258855;0.137136;0.033936;-0.449219;-0.489990;0.866586;0.251240;-0.307262;0.302486
29392;6.915179;2.315678;6.691987;0.176723;-0.241749;0.087458;0.027832;-0.458252;-0.504883;0.865358;0.252896;-0.308771;0.303083
29393;6.865784;2.306255;6.728780;0.199280;-0.221964;0.063119;0.036621;-0.452393;-0.495605;0.864190;0.254726;-0.310027;0.303603
29394;6.913753;2.406843;6.843237;0.248175;-0.233381;0.049296;0.021729;-0.454590;-0.496338;0.862916;0.256969;-0.311209;0.304124
29395;6.873780;2.188354;6.896832;0.487891;-0.276175;0.027290;0.027832;-0.461670;-0.492676;0.861061;0.261097;-0.312039;0.305015
29396;7.010341;2.453455;6.452487;0.555473;-0.259832;0.034021;0.022217;-0.470459;-0.489990;0.859063;0.265645;-0.312586;0.306159
29397;6.699645;2.142691;7.344381;0.711773;-0.280373;-0.032144;0.019531;-0.468506;-0.481201;0.856805;0.271526;-0.312725;0.307182
29398;6.256190;3.444275;8.130248;1.034812;-0.493020;0.062951;0.010010;-0.477051;-0.478760;0.852962;0.279991;-0.313748;0.309228
29399;5.745330;4.074736;9.803766;1.251558;-0.920032;0.298915;0.005859;-0.495361;-0.466797;0.846776;0.290443;-0.317754;0.312483
29400;6.200123;3.444130;9.792596;1.034330;-1.786681;0.504614;-0.013184;-0.502930;-0.457520;0.838079;0.301001;-0.328855;0.314445
29401;5.755759;3.497135;10.248586;0.908548;-2.550843;0.633919;-0.040771;-0.505859;-0.459961;0.826909;0.312199;-0.345800;0.314921
29402;5.817119;2.387992;10.416329;1.151530;-3.430227;0.721725;-0.068115;-0.512451;-0.442383;0.811732;0.326891;-0.368129;0.314188
29403;4.629122;1.722826;11.967236;1.509506;-4.753092;0.696343;-0.115723;-0.532715;-0.409424;0.790494;0.347099;-0.397889;0.310364
29404;3.528678;2.954382;12.160377;1.770535;-6.447767;0.838372;-0.170898;-0.534912;-0.374756;0.760585;0.372077;-0.437545;0.302693
29405;3.655800;14.553655;9.236012;1.532242;-7.913211;1.640877;-0.232666;-0.549561;-0.327393;0.721083;0.394853;-0.487826;0.293525
29406;16.418584;9.501876;4.239421;1.348221;-8.223565;3.362969;-0.311523;-0.546387;-0.292969;0.673020;0.408264;-0.543549;0.291409
29407;24.511051;8.567076;1.004223;2.199822;-7.174650;3.613708;-0.373291;-0.535645;-0.228271;0.622695;0.420650;-0.589354;0.296591
29408;25.500809;10.228108;5.024765;1.460831;-6.193306;4.068233;-0.442383;-0.504395;-0.165283;0.575917;0.422711;-0.630911;0.302634
29409;19.705810;6.396885;11.929668;1.835216;-5.175402;3.488713;-0.484375;-0.485840;-0.111572;0.532645;0.425600;-0.662421;0.310406
29410;4.761167;3.574559;13.799797;2.979908;-4.159881;2.817252;-0.514404;-0.471924;-0.039062;0.491249;0.433534;-0.682310;0.324308
29411;19.369443;10.730084;9.436827;3.082479;-3.242707;1.777107;-0.530273;-0.453613;0.007568;0.456533;0.444478;-0.693038;0.337218
29412;10.224880;15.321132;13.035567;0.853729;0.147110;0.573783;-0.541016;-0.450928;0.011475;0.452651;0.444012;-0.692072;0.344960
29413;0.357724;8.414836;11.590973;-1.029137;1.190762;0.084258;-0.547363;-0.452393;0.008301;0.463122;0.436226;-0.690660;0.343823
29414;0.346934;3.294820;8.542327;-1.393001;1.418730;-0.489941;-0.545410;-0.454834;-0.016846;0.477772;0.429589;-0.687149;0.339137
29415;1.965705;2.194934;6.954671;-1.135710;2.081550;-1.181182;-0.536377;-0.469482;-0.035156;0.497066;0.425892;-0.677518;0.335426
29416;2.603099;3.488318;6.333042;-1.059170;3.015291;-1.603310;-0.522949;-0.476562;-0.076660;0.522197;0.421986;-0.661830;0.333494
29417;2.502330;4.815550;5.790850;-1.402502;3.845785;-1.574478;-0.504883;-0.492188;-0.115234;0.552449;0.413642;-0.642838;0.332355
29418;3.282049;4.580926;5.298796;-1.861767;4.497344;-1.259324;-0.491943;-0.490723;-0.171143;0.586041;0.399041;-0.622200;0.331949
29419;5.683948;2.719278;4.924219;-1.887873;5.005677;-1.177617;-0.461426;-0.498291;-0.214844;0.620993;0.381704;-0.598219;0.332871
29420;7.844858;2.216005;4.633843;-1.511358;5.453998;-1.401291;-0.422852;-0.500977;-0.270264;0.656210;0.365322;-0.568825;0.335210
29421;8.645600;1.950227;4.429564;-0.944298;5.755168;-1.624150;-0.382324;-0.496826;-0.316895;0.690125;0.351340;-0.534119;0.339123
29422;8.884361;2.748481;4.877672;-0.330015;5.703470;-1.808441;-0.332031;-0.495361;-0.349121;0.720779;0.340950;-0.496080;0.343710
29423;10.019369;4.444656;5.211548;-0.112182;5.513175;-1.883161;-0.292969;-0.508789;-0.372803;0.748477;0.331874;-0.457135;0.347376
29424;10.975511;4.959688;5.731606;-0.198686;5.415396;-1.924209;-0.244873;-0.511963;-0.400635;0.774403;0.321908;-0.417866;0.349376
29425;11.792184;4.649882;6.561285;-0.194297;5.429851;-2.141151;-0.180420;-0.520996;-0.420898;0.799177;0.311914;-0.376931;0.349211
29426;12.482199;5.218350;7.337803;0.031364;5.470098;-2.437171;-0.123779;-0.513672;-0.431885;0.822395;0.303459;-0.333386;0.347034
29427;13.928249;7.061436;7.811082;0.089860;5.439055;-2.703676;-0.077637;-0.520264;-0.440186;0.844055;0.295449;-0.288371;0.342232
29428;17.546871;6.768576;7.767977;-0.333471;5.242714;-3.118796;-0.010498;-0.521484;-0.443115;0.865280;0.285241;-0.244184;0.332117
29429;23.349709;4.379301;5.830928;-0.844014;4.969143;-3.879835;0.053955;-0.505371;-0.450195;0.886917;0.272873;-0.200928;0.313920
29430;26.723146;2.791732;1.538171;-1.272113;4.401703;-4.506878;0.113281;-0.495361;-0.451172;0.907689;0.259088;-0.161018;0.288179
29431;28.060710;5.062911;-4.154301;-1.953414;3.534156;-4.087174;0.154297;-0.473145;-0.462402;0.925414;0.240994;-0.129828;0.262062
29432;28.853716;0.733389;-11.399288;-2.269097;2.617231;-2.580964;0.190186;-0.445312;-0.476807;0.937829;0.220412;-0.109229;0.244874
29433;27.306564;-6.193913;-16.654642;-0.734607;1.593288;-1.051187;0.201172;-0.440186;-0.480469;0.942628;0.212355;-0.096269;0.238936
29434;27.616780;-8.640885;-16.336940;1.033145;-0.171269;0.279839;0.206055;-0.450928;-0.480469;0.940054;0.220599;-0.096036;0.241684
29435;15.153726;0.072579;-15.613782;-0.131479;-2.635749;1.935726;0.168457;-0.453857;-0.486816;0.933923;0.223273;-0.120504;0.251826
29436;-0.778115;-14.869219;33.067790;3.092979;-4.131319;1.449681;0.121582;-0.478516;-0.472656;0.920029;0.254361;-0.148799;0.258273
29437;20.404796;24.590891;5.501971;1.640440;-3.808258;1.452373;0.075439;-0.494873;-0.466553;0.908067;0.273155;-0.177484;0.263249
29438;16.775218;9.485105;8.376871;0.008925;-3.179816;0.876565;0.032227;-0.495605;-0.463379;0.901054;0.278816;-0.203520;0.262570
29439;6.118710;3.192783;6.949227;-0.169848;-2.779002;0.395346;0.015137;-0.483154;-0.470947;0.895596;0.282895;-0.225700;0.258722
29440;8.762814;2.627547;5.959845;0.002824;-2.285813;0.830651;-0.009033;-0.493164;-0.462158;0.889288;0.286241;-0.244745;0.259486
29441;18.320767;7.460928;4.541803;-0.211639;-1.162797;0.620033;-0.023926;-0.487305;-0.463135;0.885996;0.285920;-0.255368;0.260861
29442;6.321735;2.159935;7.374832;-0.205433;-0.640052;0.388440;-0.029053;-0.485840;-0.462158;0.884228;0.284980;-0.261558;0.261752
29443;6.966519;3.481196;6.684389;-0.204320;-0.392209;0.201157;-0.039795;-0.484863;-0.460938;0.883380;0.283905;-0.265465;0.261850
29444;6.798052;3.778079;6.619385;-0.148311;-0.309750;0.111692;-0.038086;-0.485107;-0.470215;0.882766;0.283255;-0.268426;0.261607
29445;6.696592;2.970746;6.865647;-0.131211;-0.197786;0.114855;-0.032227;-0.483643;-0.463867;0.882349;0.282476;-0.270529;0.261688
29446;6.538145;2.813811;7.004004;-0.069121;-0.170476;-0.013300;-0.048340;-0.488037;-0.470703;0.882124;0.282382;-0.271992;0.261032
29447;6.584271;3.276426;6.792102;-0.016409;-0.150876;-0.096242;-0.043945;-0.483887;-0.464600;0.881998;0.282818;-0.272999;0.259935
29448;6.479715;3.649492;6.735046;0.041068;-0.113535;-0.104072;-0.041504;-0.476318;-0.465332;0.881836;0.283612;-0.273585;0.259000
29449;6.316620;3.989197;6.587660;0.059236;-0.075722;-0.066441;-0.039795;-0.492188;-0.473633;0.881635;0.284371;-0.273941;0.258474
29450;6.243906;4.018907;6.666205;0.030614;-0.063587;0.017774;-0.047852;-0.484863;-0.468018;0.881348;0.284702;-0.274466;0.258531
29451;6.298671;3.609875;6.658783;-0.008226;-0.088679;0.040844;-0.048340;-0.480469;-0.461670;0.881047;0.284748;-0.275312;0.258609
29452;6.251992;3.500167;6.741132;-0.065414;-0.146361;0.002216;-0.045410;-0.475342;-0.464600;0.880831;0.284586;-0.276611;0.258137
29453;6.280310;3.283555;6.834302;-0.066977;-0.265674;-0.047648;-0.052490;-0.482666;-0.469482;0.880448;0.284782;-0.278667;0.257012
29454;6.313577;3.504381;6.727572;-0.042187;-0.361209;-0.077787;-0.051270;-0.480469;-0.473389;0.879842;0.285433;-0.281295;0.255497
29455;6.425052;3.540855;6.539115;-0.017550;-0.451128;-0.063945;-0.048584;-0.481201;-0.463135;0.878927;0.286418;-0.284558;0.253926
29456;6.599557;3.532858;6.397954;0.030582;-0.411659;-0.036736;-0.059814;-0.482422;-0.461426;0.877921;0.287604;-0.287489;0.252761
29457;6.592131;3.605179;6.342988;0.062097;-0.332423;-0.006721;-0.062012;-0.479736;-0.468018;0.876958;0.288778;-0.289842;0.252079
29458;6.577462;3.551264;6.366711;0.069430;-0.272894;-0.009023;-0.063232;-0.483643;-0.458984;0.876120;0.289883;-0.291735;0.251540
29459;6.571632;3.568653;6.430314;0.072607;-0.250500;-0.001240;-0.065918;-0.482910;-0.466309;0.875308;0.290944;-0.293474;0.251119
29460;6.639177;3.480146;6.451965;0.074405;-0.233501;-0.010911;-0.070312;-0.491943;-0.463623;0.874549;0.292005;-0.295059;0.250674
29461;6.560633;3.722895;6.363791;0.063549;-0.208567;0.007863;-0.070068;-0.488525;-0.467529;0.873836;0.292886;-0.296528;0.250400
29462;6.461840;3.689396;6.466924;0.063139;-0.202375;0.026242;-0.070801;-0.484375;-0.458252;0.873098;0.293705;-0.297996;0.250274
29463;6.564035;3.710097;6.347407;0.070571;-0.230114;0.072989;-0.082275;-0.487061;-0.468506;0.872172;0.294517;-0.299761;0.250438
29464;6.819676;3.326789;6.256503;0.107905;-0.238366;0.074059;-0.075195;-0.489990;-0.462646;0.871128;0.295614;-0.301508;0.250683
29465;6.666526;3.550666;6.203689;0.160275;-0.256333;0.070095;-0.079590;-0.488037;-0.463867;0.869912;0.297137;-0.303263;0.250986
29466;6.876873;2.587026;6.945705;0.357906;-0.389448;-0.006026;-0.092529;-0.492432;-0.450195;0.868019;0.300558;-0.305377;0.250905
29467;6.478333;3.461566;7.650304;0.570365;-0.612623;-0.022492;-0.085449;-0.497070;-0.447021;0.865030;0.306012;-0.308608;0.250680
29468;6.052872;3.695292;8.431927;0.789432;-0.984215;0.046433;-0.097412;-0.505371;-0.442139;0.860314;0.313619;-0.314208;0.250552
29469;6.084114;3.695756;8.990677;1.105370;-1.472227;0.172337;-0.101318;-0.507568;-0.431641;0.853082;0.324123;-0.322917;0.250837
29470;5.896871;4.670941;10.762802;1.432331;-2.175867;0.190368;-0.122314;-0.521729;-0.421631;0.842733;0.338256;-0.335874;0.250145
29471;5.364364;3.761443;10.973338;1.497450;-3.269411;0.351180;-0.145996;-0.524170;-0.384521;0.828225;0.354437;-0.356587;0.247515
29472;4.575204;2.842737;11.998570;1.859549;-4.599136;0.327971;-0.188721;-0.549072;-0.359619;0.807661;0.375458;-0.385182;0.241557
29473;3.205148;7.343271;11.829834;2.252643;-6.286556;0.425241;-0.234619;-0.563721;-0.316406;0.778318;0.401292;-0.423694;0.231665
29474;7.108121;14.754271;7.717464;1.978561;-7.045930;1.800081;-0.282227;-0.562500;-0.267822;0.741824;0.420545;-0.470740;0.226369
29475;10.915734;7.997909;6.130729;1.587140;-7.379937;2.849320;-0.345215;-0.561523;-0.217285;0.700284;0.432120;-0.522255;0.223884
29476;20.983740;4.863446;4.234407;2.249794;-6.981586;2.777701;-0.391113;-0.548340;-0.152344;0.655148;0.445230;-0.567656;0.224314
29477;21.431360;9.010606;5.670635;2.936857;-6.264782;2.528422;-0.440430;-0.542480;-0.074707;0.608685;0.460140;-0.604657;0.228394
29478;16.336354;9.487992;6.966591;3.018187;-5.827255;2.684752;-0.472900;-0.542969;-0.002197;0.561610;0.472176;-0.637684;0.234529
29479;11.428102;6.264990;10.223054;3.352343;-3.941337;2.401584;-0.498779;-0.520264;0.060791;0.522178;0.482245;-0.658282;0.247861
29480;14.409181;10.564406;10.754095;2.639150;-2.326752;1.906973;-0.510010;-0.500244;0.100342;0.494611;0.487785;-0.670221;0.261209
29481;9.647549;12.068506;11.558729;0.938499;1.140383;1.414073;-0.534180;-0.487549;0.101074;0.494055;0.481188;-0.669081;0.276944
29482;0.485713;8.412608;9.582341;-0.223136;2.388893;1.184234;-0.554688;-0.480957;0.076172;0.505465;0.468026;-0.664278;0.290158
29483;-0.435818;5.201860;6.981191;-0.834262;2.756347;1.161040;-0.572754;-0.471191;0.051514;0.521057;0.451260;-0.658914;0.301158
29484;2.075684;3.570754;5.647105;-0.964777;3.265203;0.823373;-0.589355;-0.476318;0.017578;0.540384;0.434162;-0.649888;0.311664
29485;3.074719;3.734348;5.260475;-1.076174;4.226883;0.374428;-0.609131;-0.462646;-0.030518;0.565893;0.416022;-0.634478;0.322689
29486;1.627805;3.445884;5.266564;-1.139802;5.059430;0.109484;-0.608398;-0.467285;-0.081787;0.595822;0.396077;-0.613372;0.334504
29487;0.410745;2.080446;5.169826;-0.902084;5.363249;-0.053973;-0.605469;-0.478027;-0.144531;0.625799;0.376520;-0.588342;0.347075
29488;1.679553;1.307020;5.219734;-0.292530;5.309251;-0.400901;-0.598145;-0.472412;-0.203369;0.653334;0.361233;-0.559547;0.359962
29489;4.127936;2.749416;5.755364;0.120953;5.315407;-0.982674;-0.574463;-0.488525;-0.252686;0.680079;0.350160;-0.526597;0.370912
29490;6.231274;4.116172;6.487249;0.158446;5.433564;-1.532209;-0.553223;-0.508301;-0.308105;0.707479;0.340594;-0.490131;0.378473
29491;7.643262;4.339258;7.201491;0.057496;5.559865;-2.022399;-0.514160;-0.537354;-0.358643;0.735572;0.331237;-0.450700;0.382212
29492;8.641621;4.033664;7.821432;0.086297;5.595880;-2.443591;-0.471191;-0.566406;-0.400635;0.763205;0.322681;-0.408654;0.382618
29493;10.275558;4.739703;8.847209;0.260935;5.609347;-2.725801;-0.409180;-0.601562;-0.447021;0.789283;0.315288;-0.364119;0.380846
29494;11.898011;6.433492;10.604172;0.267721;5.599917;-2.889245;-0.340088;-0.625244;-0.492676;0.813663;0.307590;-0.318194;0.376952
29495;15.310706;9.826143;12.063149;-0.080549;5.528619;-3.038004;-0.268311;-0.660645;-0.526123;0.836956;0.297289;-0.272581;0.369898
29496;20.202753;8.969144;11.807576;-0.846921;5.558082;-3.414345;-0.182129;-0.676270;-0.557617;0.860946;0.281543;-0.227408;0.357480
29497;23.340066;4.984634;9.287342;-1.023164;5.256051;-4.518033;-0.074219;-0.684814;-0.605713;0.885290;0.266611;-0.181620;0.334953
29498;26.616297;7.266129;4.466641;-1.181764;4.489326;-5.086313;0.036621;-0.678223;-0.618652;0.907438;0.252605;-0.140079;0.305164
29499;26.364242;3.497913;-2.237213;-1.668906;3.424601;-4.542915;0.128906;-0.659180;-0.632324;0.925382;0.236263;-0.108589;0.275783
29500;26.692406;-3.228155;-10.152139;-0.399829;2.278376;-3.671849;0.196777;-0.647949;-0.638916;0.936054;0.231111;-0.084561;0.251475
29501;27.937362;-1.059177;-14.306678;0.537679;1.454890;-2.038790;0.239502;-0.637695;-0.626221;0.940091;0.233648;-0.068098;0.238746
29502;26.172524;-4.458657;-16.459769;0.756850;0.534771;-0.205623;0.243164;-0.645752;-0.612793;0.939174;0.238736;-0.061934;0.239002
29503;23.271760;-2.077744;-12.522902;0.584152;-0.837259;1.240999;0.224121;-0.655273;-0.615234;0.935004;0.244349;-0.069825;0.247356
29504;2.089065;10.469063;7.775734;-2.208596;-2.151818;2.510159;0.182861;-0.646973;-0.643555;0.932361;0.230180;-0.096198;0.261662
29505;-7.266501;2.252507;26.644052;-1.019308;-3.221665;1.842708;0.133789;-0.645508;-0.669189;0.927023;0.227910;-0.126911;0.269407
29506;10.689420;-4.562265;5.922688;0.381819;-4.952858;1.271289;0.061768;-0.648926;-0.676025;0.917200;0.240591;-0.166579;0.270390
29507;26.901751;-1.505125;11.186583;0.824870;-3.572767;0.659555;0.022705;-0.661377;-0.665771;0.908493;0.254086;-0.193249;0.269696
29508;9.514748;-0.980806;9.362727;1.246348;-2.130089;0.957122;-0.021484;-0.675049;-0.650146;0.899847;0.266907;-0.208538;0.274861
29509;4.574660;9.973934;5.685305;0.996523;-2.042111;0.568906;-0.035645;-0.685303;-0.645996;0.892381;0.278237;-0.222772;0.276790
29510;7.033914;9.682644;6.127243;0.344754;-2.142587;0.500866;-0.071533;-0.691162;-0.641113;0.886095;0.284967;-0.239018;0.276585
29511;11.721030;8.819155;4.882235;-0.323434;-1.337685;0.795174;-0.088135;-0.687012;-0.639648;0.882079;0.284274;-0.251492;0.279063
29512;8.605337;3.926464;6.034452;-0.429490;-0.902775;0.811417;-0.117676;-0.679688;-0.641357;0.879040;0.281747;-0.261015;0.282452
29513;8.271538;1.394911;7.242135;-0.407753;-0.627980;0.727963;-0.127686;-0.679932;-0.645752;0.876643;0.278911;-0.268254;0.285912
29514;7.607748;1.989923;6.998645;-0.274870;-0.440904;0.514866;-0.138916;-0.674561;-0.644775;0.874804;0.277069;-0.273299;0.288547
29515;6.984138;3.106385;6.553852;-0.184232;-0.267783;0.373403;-0.148926;-0.679199;-0.647949;0.873462;0.275790;-0.276533;0.290748
29516;6.699259;2.619233;6.979521;-0.125606;-0.138936;0.318628;-0.146240;-0.663574;-0.651123;0.872389;0.274763;-0.278553;0.293002
29517;6.598099;3.070680;6.895850;-0.067329;-0.081487;0.305056;-0.150879;-0.661865;-0.644043;0.871382;0.273999;-0.280003;0.295324
29518;6.800171;2.544731;6.936384;-0.011604;-0.088995;0.210726;-0.164062;-0.669678;-0.652344;0.870449;0.273886;-0.281149;0.297087
29519;6.756229;2.955130;6.820554;0.031619;-0.081868;0.144961;-0.159912;-0.663574;-0.653320;0.869586;0.274230;-0.281984;0.298502
29520;6.687309;3.367811;6.605213;0.016259;-0.049316;0.138049;-0.155762;-0.666992;-0.650879;0.868872;0.274370;-0.282616;0.299850
