// Start Time: Unknown
// Update Rate: 60.0Hz
// Filter Profile: human (46.1)
// Firmware Version: 4.4.0
PacketCounter;Acc_X;Acc_Y;Acc_Z;Gyr_X;Gyr_Y;Gyr_Z;Mag_X;Mag_Y;Mag_Z;Quat_q0;Quat_q1;Quat_q2;Quat_q3
28597;9.892981;0.290398;0.402953;0.001561;0.001502;0.003985;-0.739990;-0.198486;0.507324;-0.131552;-0.684381;0.106250;-0.709245
28598;9.877192;0.343940;0.334421;-0.052295;0.022550;-0.000363;-0.740234;-0.193359;0.506836;-0.131873;-0.684190;0.106532;-0.709326
28599;9.784884;0.213143;0.332148;-0.102660;0.001681;-0.020472;-0.746338;-0.197998;0.512207;-0.132573;-0.684086;0.107021;-0.709223
28600;9.813234;-0.038980;0.466567;-0.092301;-0.014251;-0.027345;-0.746094;-0.198730;0.514404;-0.133248;-0.684093;0.107427;-0.709029
28601;9.911267;-0.156098;0.481942;-0.039627;0.007953;-0.024574;-0.739258;-0.187744;0.503906;-0.133620;-0.684022;0.107519;-0.709013
28602;9.810234;-0.150601;0.467189;0.011285;0.030941;-0.009685;-0.744629;-0.193359;0.506348;-0.133623;-0.683856;0.107381;-0.709194
28603;9.779083;0.023037;0.504316;0.036274;0.012865;0.002781;-0.742676;-0.198486;0.507080;-0.133382;-0.683808;0.107199;-0.709312
28604;9.774294;0.069066;0.705856;0.043470;-0.004384;0.001112;-0.743164;-0.188965;0.509521;-0.133085;-0.683867;0.106995;-0.709343
28605;9.935778;0.183404;0.735663;0.057214;0.002458;-0.001207;-0.746338;-0.200439;0.513184;-0.132722;-0.683887;0.106696;-0.709436
28606;9.977157;0.158195;0.499396;0.043220;0.002258;-0.009864;-0.753174;-0.202637;0.506836;-0.132489;-0.683885;0.106432;-0.709521
28607;9.950584;0.157524;0.312518;0.030904;-0.015808;-0.027824;-0.741455;-0.202881;0.499023;-0.132435;-0.683982;0.106162;-0.709478
28608;9.878334;0.076728;0.285888;0.018494;-0.006635;-0.023844;-0.739258;-0.196045;0.508789;-0.132405;-0.684019;0.105989;-0.709474
28609;9.740787;0.091909;0.308017;0.008139;0.011547;-0.013769;-0.742920;-0.197998;0.507324;-0.132377;-0.683935;0.105928;-0.709569
28610;9.779241;0.138916;0.516735;-0.014984;-0.008090;-0.005310;-0.740234;-0.194824;0.508057;-0.132401;-0.683940;0.106088;-0.709536
28611;9.982737;0.241090;0.641191;-0.029935;-0.008402;-0.013094;-0.750000;-0.191650;0.506348;-0.132551;-0.683930;0.106298;-0.709486
28612;9.932674;0.120066;0.570010;-0.042111;0.004816;-0.018666;-0.744629;-0.198975;0.502930;-0.132808;-0.683816;0.106536;-0.709512
28613;9.823472;0.040227;0.419984;-0.019223;0.010309;-0.018235;-0.749268;-0.197266;0.508057;-0.132942;-0.683682;0.106644;-0.709600
28614;9.746218;0.112841;0.445733;-0.019964;-0.010577;-0.010434;-0.749268;-0.198730;0.500977;-0.132987;-0.683661;0.106837;-0.709583
28615;9.865714;0.204309;0.538411;-0.041833;-0.009667;-0.005162;-0.740479;-0.199707;0.508545;-0.133126;-0.683604;0.107208;-0.709556
28616;9.928575;0.278321;0.530739;-0.073802;0.013512;0.011827;-0.747803;-0.200684;0.504883;-0.133388;-0.683362;0.107812;-0.709648
28617;9.910023;0.239946;0.465456;-0.119718;0.018516;0.022022;-0.744629;-0.202637;0.507812;-0.133838;-0.683012;0.108754;-0.709757
28618;9.777681;0.279335;0.466424;-0.153048;0.018263;0.031733;-0.736084;-0.202393;0.500488;-0.134433;-0.682622;0.109932;-0.709838
28619;9.862757;0.310019;0.417557;-0.196004;0.037277;0.034348;-0.742920;-0.193115;0.506836;-0.135346;-0.682100;0.111347;-0.709946
28620;9.734126;0.291918;0.309673;-0.218906;0.044966;0.021698;-0.753418;-0.201660;0.505859;-0.136401;-0.681522;0.112775;-0.710074
28621;9.743247;0.324062;0.186261;-0.209745;0.005858;-0.005660;-0.749512;-0.203857;0.499023;-0.137485;-0.681177;0.114073;-0.709989
28622;9.756094;0.181612;0.255813;-0.194472;-0.026447;-0.027285;-0.741943;-0.199219;0.503662;-0.138634;-0.681099;0.115197;-0.709658
28623;9.881852;0.122426;0.372162;-0.149002;-0.006084;-0.036057;-0.744141;-0.199951;0.505127;-0.139611;-0.681019;0.115924;-0.709425
28624;9.769083;0.248344;0.358322;-0.137580;0.029544;-0.029655;-0.752686;-0.199951;0.498047;-0.140484;-0.680731;0.116588;-0.709420
28625;9.812157;0.336353;0.383329;-0.253904;-0.004230;-0.016643;-0.746338;-0.200684;0.497803;-0.141873;-0.680470;0.118098;-0.709144
28626;9.913169;0.147728;0.534546;-0.357569;-0.029768;-0.018189;-0.754639;-0.209961;0.489990;-0.143888;-0.680263;0.120209;-0.708582
28627;9.976463;-0.065251;0.640955;-0.371209;-0.023096;-0.019636;-0.752930;-0.211182;0.500000;-0.145976;-0.679937;0.122454;-0.708083
28628;9.954357;-0.087670;0.676513;-0.325573;0.006347;-0.017003;-0.737793;-0.208496;0.491699;-0.147746;-0.679500;0.124354;-0.707805
28629;9.895409;-0.073440;0.759985;-0.327161;0.008254;-0.028768;-0.742920;-0.215576;0.488037;-0.149754;-0.679070;0.126203;-0.707468
28630;9.902228;-0.307239;0.594809;-0.309713;0.007592;-0.050450;-0.752197;-0.221191;0.486816;-0.151746;-0.678628;0.127874;-0.707167
28631;9.879401;-0.524891;0.515219;-0.232110;0.004115;-0.050150;-0.750977;-0.220947;0.487549;-0.153182;-0.678257;0.129147;-0.706982
28632;9.829727;-0.480415;0.468554;-0.181168;0.019367;-0.035272;-0.740723;-0.223389;0.495850;-0.154206;-0.677851;0.130205;-0.706955
28633;9.836070;-0.429574;0.528431;-0.220852;0.038395;-0.016832;-0.752197;-0.227295;0.483643;-0.155379;-0.677324;0.131510;-0.706962
28634;9.941882;-0.430527;0.689666;-0.151512;0.040301;-0.019845;-0.741211;-0.228516;0.485352;-0.156124;-0.676783;0.132544;-0.707123
28635;9.841751;-0.042489;0.575400;-0.068184;0.034682;-0.042466;-0.747314;-0.224121;0.481445;-0.156636;-0.676450;0.132931;-0.707255
28636;9.833316;0.046276;0.475770;-0.115017;0.040084;-0.046204;-0.753906;-0.229492;0.481201;-0.157351;-0.676010;0.133594;-0.707392
28637;9.804749;-0.061402;0.456171;-0.108367;0.083724;-0.037490;-0.744141;-0.228516;0.480469;-0.157948;-0.675275;0.134223;-0.707842
28638;9.826875;0.114119;0.377295;-0.089503;0.122630;-0.029815;-0.743652;-0.229492;0.483643;-0.158598;-0.674396;0.134687;-0.708446
28639;9.683756;0.255805;0.380954;-0.112945;0.071664;-0.042346;-0.748047;-0.228271;0.475586;-0.159357;-0.673845;0.135205;-0.708701
28640;9.736559;0.308091;0.591030;-0.150004;0.002088;-0.051066;-0.743408;-0.231201;0.475342;-0.160309;-0.673631;0.136064;-0.708526
28641;9.921032;0.254962;0.871628;-0.160837;-0.020658;-0.063668;-0.748535;-0.236572;0.470703;-0.161481;-0.673569;0.136921;-0.708154
28642;9.912497;0.105752;0.972033;-0.112188;0.018732;-0.064645;-0.745605;-0.234375;0.472168;-0.162427;-0.673252;0.137498;-0.708126
28643;9.976127;0.112927;0.791059;-0.101075;0.050097;-0.063816;-0.750488;-0.232422;0.471436;-0.163326;-0.672797;0.137900;-0.708274
28644;9.840008;0.053087;0.634332;-0.106438;0.041346;-0.067240;-0.756836;-0.225342;0.473877;-0.164122;-0.672378;0.138289;-0.708412
28645;9.869154;-0.035492;0.547581;-0.103986;0.043556;-0.062971;-0.743896;-0.235596;0.473877;-0.164595;-0.671982;0.138573;-0.708623
28646;9.798531;-0.258277;0.577540;-0.042612;0.035119;-0.060383;-0.745605;-0.235596;0.469238;-0.165082;-0.671743;0.138567;-0.708737
28647;9.826254;-0.328390;0.662639;0.059542;0.040421;-0.035424;-0.749023;-0.250000;0.465820;-0.164868;-0.671543;0.138174;-0.709053
28648;9.816077;-0.111983;0.671924;0.127251;0.050141;-0.030034;-0.743164;-0.232910;0.474609;-0.164430;-0.671254;0.137550;-0.709550
28649;9.736677;0.254859;0.669016;0.101817;0.009687;-0.024915;-0.751953;-0.236816;0.480225;-0.163754;-0.671362;0.136883;-0.709733
28650;9.815237;0.366090;0.739093;0.052676;-0.008969;-0.032478;-0.748291;-0.235352;0.469482;-0.163177;-0.671490;0.136409;-0.709836
28651;9.776668;0.395655;0.628233;-0.004109;-0.011466;-0.031952;-0.747559;-0.230469;0.473633;-0.163220;-0.671478;0.136478;-0.709824
28652;9.770459;0.384562;0.498107;-0.083949;-0.026002;-0.036257;-0.740234;-0.234375;0.471436;-0.163568;-0.671517;0.136879;-0.709630
28653;9.799674;0.122570;0.545338;-0.107417;-0.022454;-0.029419;-0.756104;-0.239258;0.462646;-0.164263;-0.671505;0.137522;-0.709356
28654;9.821630;0.057712;0.577395;-0.043508;-0.006615;-0.012528;-0.743408;-0.238037;0.467285;-0.164449;-0.671276;0.138029;-0.709431
28655;9.901142;0.096471;0.554621;-0.002494;-0.003889;-0.013725;-0.746582;-0.243408;0.474121;-0.164517;-0.671226;0.138180;-0.709433
28656;9.824493;0.091934;0.642484;0.002758;-0.029446;-0.022883;-0.744141;-0.240967;0.477051;-0.164454;-0.671376;0.138172;-0.709308
28657;9.920434;0.098249;0.764650;0.017133;-0.020144;-0.016603;-0.750732;-0.240234;0.475342;-0.164222;-0.671532;0.138036;-0.709241
28658;9.834562;0.180233;0.674337;0.008456;0.013744;-0.017669;-0.751953;-0.240479;0.470215;-0.164000;-0.671414;0.137920;-0.709426
28659;9.773539;0.182654;0.602807;-0.033205;0.001594;-0.008219;-0.742920;-0.240234;0.474121;-0.164052;-0.671242;0.138217;-0.709519
28660;9.886561;0.149673;0.632790;-0.050410;0.009538;-0.012653;-0.744141;-0.235107;0.468750;-0.164294;-0.671106;0.138506;-0.709535
28661;9.942859;-0.042047;0.629496;-0.036195;0.001635;-0.011823;-0.740967;-0.242188;0.467773;-0.164437;-0.670994;0.138789;-0.709553
28662;9.940150;-0.068863;0.561990;0.030749;0.012721;-0.017431;-0.741455;-0.232178;0.466309;-0.164445;-0.670900;0.138703;-0.709656
28663;9.791504;0.019967;0.569598;0.090081;-0.004479;-0.019502;-0.746826;-0.241211;0.474609;-0.163914;-0.671013;0.138221;-0.709767
28664;9.807860;0.081646;0.647166;0.114562;0.001243;-0.017804;-0.741455;-0.239014;0.472656;-0.163174;-0.671143;0.137500;-0.709955
28665;9.776016;0.214098;0.670736;0.106066;-0.003162;-0.009201;-0.740479;-0.240723;0.472168;-0.162536;-0.671287;0.136934;-0.710074
28666;9.853299;0.339844;0.667458;0.055560;-0.000010;-0.017688;-0.750000;-0.231689;0.472900;-0.162325;-0.671340;0.136652;-0.710127
28667;9.810071;0.317754;0.576933;0.002957;0.003343;-0.021540;-0.747559;-0.235596;0.471436;-0.162093;-0.671283;0.136539;-0.710255
28668;9.753098;0.294077;0.559153;-0.045064;-0.011153;-0.028238;-0.742676;-0.234131;0.478271;-0.162321;-0.671243;0.136756;-0.710199
28669;9.756408;0.078572;0.598501;-0.070378;-0.017890;-0.030029;-0.743652;-0.239746;0.474854;-0.162558;-0.671330;0.136972;-0.710020
28670;9.913186;-0.069130;0.621049;-0.039290;-0.013814;-0.029770;-0.740479;-0.243164;0.474609;-0.162799;-0.671372;0.137109;-0.709900
28671;9.837848;-0.141427;0.617527;0.018105;-0.008202;-0.025151;-0.743652;-0.241211;0.472900;-0.162804;-0.671460;0.136961;-0.709844
28672;9.874432;-0.010773;0.591947;0.072568;-0.003367;-0.016004;-0.747070;-0.243408;0.470215;-0.162406;-0.671543;0.136557;-0.709934
28673;9.855974;0.123689;0.541876;0.080371;-0.001576;-0.017585;-0.742432;-0.240479;0.465332;-0.162059;-0.671564;0.136167;-0.710068
28674;9.818022;0.160063;0.587781;0.076157;-0.002238;-0.007437;-0.745361;-0.231689;0.468506;-0.161801;-0.671548;0.135952;-0.710184
28675;9.850216;0.239179;0.580961;0.069727;0.003502;-0.004253;-0.747314;-0.237305;0.467285;-0.161245;-0.671531;0.135632;-0.710387
28676;9.869087;0.275670;0.562803;0.045791;0.009990;-0.009847;-0.751221;-0.239502;0.469971;-0.161032;-0.671404;0.135486;-0.710583
28677;9.867537;0.205774;0.486401;0.011070;0.010104;-0.022111;-0.741455;-0.239502;0.480469;-0.161039;-0.671250;0.135425;-0.710739
28678;9.934627;-0.018347;0.509741;-0.007121;0.006161;-0.027201;-0.739746;-0.236816;0.477783;-0.161062;-0.671301;0.135279;-0.710713
28679;10.156879;-0.245268;0.502554;0.004346;0.032112;-0.029477;-0.747559;-0.236084;0.479248;-0.161062;-0.671204;0.135048;-0.710849
28680;10.165372;-0.194243;0.309092;0.031449;0.068020;-0.039174;-0.749023;-0.237549;0.463135;-0.160845;-0.670916;0.134496;-0.711275
28681;9.815761;0.061794;0.368136;-0.058776;0.030868;-0.050741;-0.746338;-0.238770;0.470215;-0.161558;-0.670533;0.134791;-0.711418
28682;9.737935;-0.036390;0.774738;-0.049628;0.002082;-0.066864;-0.745605;-0.237793;0.467285;-0.162120;-0.670479;0.134824;-0.711335
28683;9.536331;-0.074909;0.972256;0.157329;0.033737;-0.061955;-0.744629;-0.232666;0.469238;-0.161550;-0.670482;0.133650;-0.711683
28684;9.542342;0.242767;0.958139;0.290595;0.060862;-0.051593;-0.740723;-0.237549;0.480957;-0.160050;-0.670526;0.131633;-0.712356
28685;9.531802;0.591412;0.792218;0.210299;0.028610;-0.054652;-0.744141;-0.240234;0.476074;-0.158940;-0.670810;0.129962;-0.712644
28686;9.709679;0.655957;0.640039;0.046776;-0.011387;-0.063375;-0.748291;-0.237061;0.467285;-0.158951;-0.671016;0.129386;-0.712552
28687;9.741854;0.401669;0.616931;-0.021890;-0.014999;-0.055965;-0.738281;-0.244141;0.471680;-0.159394;-0.671001;0.129405;-0.712465
28688;9.745766;0.232323;0.667883;0.009248;-0.021092;-0.027240;-0.737061;-0.234375;0.466553;-0.159660;-0.671145;0.129394;-0.712271
28689;9.728447;0.334892;0.756130;-0.028918;-0.057399;-0.015672;-0.740967;-0.229736;0.477783;-0.159891;-0.671399;0.129738;-0.711917
28690;9.780400;0.148012;0.865333;-0.123056;-0.089979;-0.018143;-0.743896;-0.231201;0.471191;-0.160188;-0.671851;0.130406;-0.711302
28691;9.835048;-0.049195;0.800043;-0.163815;-0.112270;-0.008918;-0.739990;-0.241699;0.472412;-0.160788;-0.672237;0.131533;-0.710594
28692;10.300381;0.006936;0.532608;-0.108970;-0.078285;-0.003702;-0.745361;-0.245117;0.475586;-0.161367;-0.672493;0.132401;-0.710059
28693;9.885627;-0.027518;0.269724;0.014221;-0.040223;-0.006458;-0.749512;-0.241943;0.471924;-0.161246;-0.672684;0.132422;-0.709902
28694;10.123521;0.293928;0.274244;0.120872;-0.018665;0.012503;-0.743652;-0.238281;0.473389;-0.160401;-0.672794;0.131929;-0.710081
28695;9.956710;0.523250;0.295322;0.093161;0.034945;-0.004717;-0.742432;-0.240479;0.473877;-0.159850;-0.672632;0.131411;-0.710454
28696;9.821832;0.682319;0.386484;0.038855;0.034944;-0.022129;-0.745117;-0.241943;0.471436;-0.159798;-0.672434;0.131132;-0.710705
28697;9.718945;0.572969;0.619635;-0.053685;-0.001663;-0.026068;-0.740479;-0.236816;0.469727;-0.160320;-0.672289;0.131465;-0.710663
28698;9.668259;0.307181;0.807677;-0.082576;-0.032620;-0.008774;-0.741699;-0.242920;0.469971;-0.160774;-0.672298;0.132080;-0.710437
28699;9.785647;0.186923;0.813146;-0.082251;-0.033955;0.024028;-0.730225;-0.243408;0.476807;-0.161174;-0.672257;0.132919;-0.710229
28700;9.801404;0.113394;0.642203;-0.077010;-0.039612;0.026544;-0.753174;-0.244873;0.476318;-0.161499;-0.672426;0.133675;-0.709854
28701;9.914689;0.003691;0.585723;-0.054950;-0.054423;0.019563;-0.749512;-0.247314;0.475586;-0.161538;-0.672539;0.134225;-0.709634
28702;9.914636;0.036837;0.417529;-0.011912;-0.045600;0.002156;-0.740234;-0.239746;0.479736;-0.161574;-0.672683;0.134464;-0.709444
28703;9.950369;0.000981;0.379080;0.029687;-0.028003;-0.010762;-0.734375;-0.237549;0.474854;-0.161257;-0.672929;0.134258;-0.709322
28704;9.881524;0.094464;0.430814;0.056067;0.003590;-0.018757;-0.746826;-0.230469;0.474854;-0.160971;-0.673007;0.133888;-0.709383
28705;9.830959;0.149231;0.465781;0.039569;0.023366;-0.022741;-0.737305;-0.246094;0.471680;-0.160503;-0.672876;0.133461;-0.709693
28706;9.872963;0.208953;0.565104;0.027390;0.012957;-0.025468;-0.744629;-0.242432;0.474121;-0.160760;-0.672782;0.133355;-0.709744
28707;9.871677;0.241195;0.573904;0.035306;0.019629;-0.015115;-0.730957;-0.243408;0.478516;-0.160670;-0.672643;0.133139;-0.709937
28708;9.701037;0.295369;0.449713;0.026523;0.008842;-0.018907;-0.731201;-0.240234;0.474609;-0.160720;-0.672718;0.132959;-0.709888
28709;9.769078;0.215371;0.564867;0.002277;-0.017337;-0.011714;-0.744629;-0.247070;0.469482;-0.160803;-0.672861;0.133013;-0.709723
28710;9.860891;0.176226;0.630774;0.023644;-0.013125;-0.014020;-0.747070;-0.235840;0.476562;-0.160963;-0.672823;0.133018;-0.709723
28711;9.925368;0.142117;0.601903;0.029807;-0.009054;-0.014239;-0.744873;-0.239746;0.477295;-0.160591;-0.672876;0.132754;-0.709807
28712;9.927135;0.209972;0.510920;0.009884;0.020608;-0.019027;-0.743164;-0.232910;0.475342;-0.160539;-0.672743;0.132593;-0.709974
28713;9.810777;0.140114;0.415554;-0.004366;0.016731;-0.021359;-0.742188;-0.239990;0.475830;-0.160407;-0.672626;0.132458;-0.710140
28714;9.732564;0.117835;0.518113;0.001200;-0.011390;-0.013253;-0.736328;-0.242920;0.479492;-0.160387;-0.672675;0.132449;-0.710100
28715;9.744530;0.141947;0.613967;0.024291;-0.026671;0.014467;-0.741211;-0.240967;0.477051;-0.160131;-0.672897;0.132477;-0.709942
28716;9.831939;0.124667;0.621234;0.030045;-0.038043;0.024971;-0.744385;-0.237305;0.476562;-0.159729;-0.673110;0.132553;-0.709816
28717;9.981535;0.125644;0.614562;0.038455;-0.016629;0.041863;-0.743164;-0.233643;0.482178;-0.159102;-0.673157;0.132620;-0.709900
28718;9.913856;0.160342;0.413025;0.006568;0.014764;0.032093;-0.742920;-0.239990;0.479248;-0.158580;-0.673074;0.132685;-0.710083
28719;9.718890;0.147820;0.420867;-0.040833;-0.022167;0.009223;-0.747803;-0.240479;0.477783;-0.158684;-0.673124;0.133057;-0.709943
28720;9.827587;0.075981;0.556236;-0.030433;-0.046853;-0.005858;-0.742920;-0.234375;0.480225;-0.158790;-0.673294;0.133325;-0.709708
28721;9.908445;0.023673;0.598095;-0.005158;-0.034653;0.001573;-0.737549;-0.241211;0.479492;-0.158540;-0.673490;0.133400;-0.709563
28722;9.930584;0.107666;0.556019;0.040063;-0.010228;0.000911;-0.737305;-0.240967;0.478027;-0.158333;-0.673610;0.133262;-0.709522
28723;9.907196;0.174471;0.521646;0.062183;0.020801;0.002902;-0.739014;-0.242920;0.486328;-0.158064;-0.673549;0.132990;-0.709691
28724;9.743518;0.276780;0.441773;0.038674;0.020684;-0.004917;-0.735352;-0.230225;0.484619;-0.157874;-0.673565;0.132714;-0.709770
28725;9.813047;0.200908;0.469092;0.021465;-0.001271;-0.017118;-0.740723;-0.237305;0.474365;-0.157547;-0.673725;0.132442;-0.709741
28726;9.901682;0.146865;0.470935;0.030772;-0.016063;-0.021060;-0.748291;-0.226807;0.480469;-0.157528;-0.673797;0.132291;-0.709705
28727;9.871432;0.119131;0.471587;0.041504;-0.009613;-0.023645;-0.735107;-0.234131;0.484863;-0.157013;-0.673892;0.131878;-0.709806
28728;9.839120;0.074115;0.485408;0.060207;0.009111;-0.021237;-0.745850;-0.229736;0.483887;-0.156631;-0.674034;0.131370;-0.709850
28729;9.753406;0.123864;0.466129;0.058240;0.007800;-0.018678;-0.751221;-0.233154;0.481201;-0.156078;-0.674092;0.130856;-0.710012
28730;9.778938;0.106169;0.572489;0.043915;-0.007999;-0.020544;-0.742432;-0.246338;0.487305;-0.155714;-0.674147;0.130486;-0.710107
28731;9.917388;0.089702;0.546906;0.053721;0.002244;-0.009562;-0.746094;-0.240479;0.480469;-0.155499;-0.674274;0.130080;-0.710108
28732;9.947762;0.155586;0.460343;0.057036;0.007264;-0.004967;-0.740967;-0.243896;0.478271;-0.155236;-0.674252;0.129762;-0.710245
28733;9.865388;0.252177;0.421799;0.044624;0.013248;-0.010935;-0.741699;-0.234375;0.484375;-0.155265;-0.674186;0.129542;-0.710342
28734;9.787718;0.155744;0.523725;0.025696;-0.011278;-0.015323;-0.745361;-0.233643;0.484375;-0.155055;-0.674332;0.129314;-0.710290
28735;9.762137;0.040036;0.583824;0.047772;-0.004896;-0.013497;-0.742676;-0.238281;0.475342;-0.154676;-0.674438;0.128947;-0.710339
28736;9.825756;0.094100;0.559169;0.068982;-0.012068;-0.003239;-0.747803;-0.232910;0.482422;-0.154430;-0.674493;0.128684;-0.710388
28737;9.907441;0.120565;0.517221;0.068467;-0.002285;0.010543;-0.739258;-0.227539;0.478516;-0.153827;-0.674534;0.128354;-0.710539
28738;9.923358;0.181887;0.428875;0.049127;0.025928;0.024377;-0.742432;-0.234619;0.481445;-0.153334;-0.674373;0.128259;-0.710816
28739;9.793436;0.285170;0.325424;0.021301;0.023820;0.015201;-0.747559;-0.229980;0.481445;-0.153143;-0.674217;0.128247;-0.711007
28740;9.818632;0.310160;0.351052;0.001705;-0.016455;-0.004034;-0.748047;-0.237305;0.478760;-0.152994;-0.674272;0.128259;-0.710985
28741;9.813000;0.182504;0.546855;-0.032531;-0.032425;-0.027644;-0.738281;-0.228760;0.486572;-0.153372;-0.674359;0.128418;-0.710792
28742;9.918261;-0.020607;0.623855;-0.008593;-0.028086;-0.019800;-0.739014;-0.230225;0.483643;-0.153314;-0.674608;0.128382;-0.710575
28743;9.918721;0.074745;0.535055;0.042053;0.006421;-0.014871;-0.745850;-0.237305;0.489258;-0.153060;-0.674661;0.128074;-0.710635
28744;9.778277;0.278692;0.402035;0.018860;0.018690;-0.017747;-0.737793;-0.239502;0.483154;-0.152958;-0.674639;0.127783;-0.710730
28745;9.775895;0.172862;0.501052;-0.020810;-0.010004;-0.028114;-0.747559;-0.230713;0.488525;-0.153332;-0.674723;0.127819;-0.710564
28746;9.930144;-0.037919;0.557572;0.001826;-0.015727;-0.023071;-0.737061;-0.233643;0.485352;-0.153179;-0.674870;0.127638;-0.710489
28747;9.895244;0.052515;0.417209;0.042275;0.012128;-0.022006;-0.739746;-0.239502;0.479492;-0.153022;-0.674924;0.127276;-0.710537
28748;9.865853;0.162625;0.331304;0.049269;0.031288;-0.019393;-0.747803;-0.230957;0.475586;-0.153028;-0.674778;0.126931;-0.710736
28749;9.816897;0.262794;0.438364;0.031684;0.025679;-0.014735;-0.748291;-0.233398;0.482910;-0.152933;-0.674547;0.126733;-0.711011
28750;9.767795;0.302067;0.546283;0.015286;0.009417;-0.013015;-0.743408;-0.224609;0.484375;-0.152819;-0.674484;0.126566;-0.711125
28751;9.830946;0.264680;0.609726;-0.001875;-0.013237;-0.017054;-0.741699;-0.235596;0.478027;-0.152656;-0.674589;0.126506;-0.711071
28752;9.805865;0.181716;0.584542;-0.014369;-0.022377;-0.025001;-0.740723;-0.230957;0.480957;-0.152936;-0.674667;0.126579;-0.710924
28753;9.914881;-0.000548;0.562984;0.015427;-0.008738;-0.019143;-0.742676;-0.229492;0.488037;-0.152891;-0.674736;0.126456;-0.710890
28754;9.822835;0.134333;0.406431;0.021244;0.004470;-0.017655;-0.741211;-0.233887;0.486816;-0.152655;-0.674806;0.126197;-0.710921
28755;9.871635;0.097029;0.468525;-0.000817;0.006921;-0.013294;-0.738037;-0.231445;0.476562;-0.152635;-0.674821;0.126109;-0.710926
28756;9.902252;0.088344;0.383138;0.031594;0.023994;-0.015034;-0.745850;-0.231201;0.481201;-0.152626;-0.674670;0.125948;-0.711099
28757;9.750387;0.290517;0.474015;-0.013021;-0.012953;-0.014121;-0.746826;-0.236816;0.483643;-0.152664;-0.674698;0.126002;-0.711055
28758;9.860742;0.135678;0.611534;-0.019078;-0.006607;-0.016514;-0.740723;-0.230957;0.478516;-0.152802;-0.674708;0.126032;-0.711011
28759;9.881379;0.175669;0.577472;0.010128;0.007211;-0.013358;-0.746582;-0.232910;0.485107;-0.152807;-0.674641;0.125985;-0.711082
28760;9.865022;0.224233;0.417892;-0.012461;0.002646;-0.017596;-0.741943;-0.239990;0.479492;-0.152829;-0.674625;0.125943;-0.711100
28761;9.853213;0.077092;0.491038;-0.026722;-0.005050;-0.014304;-0.742432;-0.229980;0.474121;-0.153153;-0.674594;0.126097;-0.711032
28762;9.812450;0.082270;0.469126;0.006309;0.004739;-0.019238;-0.741699;-0.232422;0.481201;-0.153232;-0.674487;0.126078;-0.711120
28763;9.795342;0.170937;0.559013;-0.007081;-0.013956;-0.015274;-0.734619;-0.233643;0.482422;-0.153276;-0.674560;0.126106;-0.711037
28764;9.879579;0.050544;0.593546;0.018445;0.007176;-0.012545;-0.746826;-0.241455;0.480713;-0.153250;-0.674588;0.125997;-0.711035
28765;9.906913;0.145412;0.437165;0.050995;0.015721;-0.013139;-0.742432;-0.240967;0.479492;-0.153098;-0.674521;0.125631;-0.711196
28766;9.922219;0.240144;0.430814;0.029211;0.013578;-0.015100;-0.745361;-0.235840;0.488281;-0.153132;-0.674452;0.125423;-0.711290
28767;9.789086;0.253356;0.427418;0.008726;0.023850;-0.022070;-0.738525;-0.230225;0.480957;-0.153100;-0.674389;0.125188;-0.711398
28768;9.744283;0.253094;0.512389;-0.030658;0.006636;-0.017560;-0.745361;-0.235107;0.481689;-0.153309;-0.674331;0.125338;-0.711382
28769;9.754708;0.083027;0.630149;-0.055690;-0.013141;-0.015490;-0.747559;-0.233398;0.479492;-0.153623;-0.674330;0.125621;-0.711265
28770;9.983281;-0.004471;0.606123;-0.023129;0.004267;-0.009865;-0.750000;-0.234131;0.482178;-0.153708;-0.674226;0.125729;-0.711326
28771;9.869985;0.183390;0.396595;-0.013035;-0.005956;-0.017346;-0.736816;-0.237305;0.478760;-0.153716;-0.674224;0.125708;-0.711330
28772;9.904071;0.100244;0.460615;0.001834;0.004042;-0.016560;-0.740967;-0.237549;0.480957;-0.153870;-0.674212;0.125698;-0.711310
28773;9.743502;0.250552;0.433643;0.016799;0.012521;-0.017877;-0.742432;-0.237549;0.479004;-0.153884;-0.674174;0.125535;-0.711372
28774;9.737753;0.230088;0.549117;-0.034564;-0.015009;-0.017868;-0.743652;-0.238281;0.470459;-0.154167;-0.674206;0.125719;-0.711248
28775;9.901651;0.041747;0.642832;-0.023863;-0.010890;-0.012666;-0.740723;-0.235352;0.483398;-0.154463;-0.674123;0.125927;-0.711225
28776;9.990147;0.171771;0.473455;0.011727;0.020842;-0.011712;-0.741699;-0.235840;0.482178;-0.154402;-0.674051;0.125802;-0.711329
28777;9.829974;0.232409;0.368361;-0.030806;0.006415;-0.015714;-0.741455;-0.237793;0.482178;-0.154602;-0.673999;0.125928;-0.711313
28778;9.736976;0.119029;0.479924;-0.016927;-0.000676;-0.025387;-0.745117;-0.233398;0.482178;-0.154798;-0.674021;0.125926;-0.711250
28779;9.694303;0.104146;0.633815;0.001194;-0.021327;-0.018557;-0.739990;-0.237305;0.485107;-0.154721;-0.674163;0.125861;-0.711144
28780;9.852322;0.123033;0.662200;0.016537;-0.016207;-0.008692;-0.742676;-0.235840;0.475342;-0.154578;-0.674336;0.125761;-0.711028
28781;9.960519;0.198583;0.467840;-0.000704;0.002298;-0.008654;-0.742676;-0.232666;0.480713;-0.154624;-0.674257;0.125802;-0.711086
28782;9.956788;0.091122;0.415998;-0.013453;0.021494;-0.011270;-0.745605;-0.230713;0.479004;-0.154666;-0.674108;0.125840;-0.711211
28783;9.830428;0.125127;0.374467;-0.003326;0.031426;-0.004985;-0.745117;-0.237061;0.477051;-0.154583;-0.673879;0.125837;-0.711447
28784;9.761165;0.216613;0.504635;-0.044031;-0.008224;-0.010085;-0.742676;-0.245605;0.488037;-0.154838;-0.673828;0.126108;-0.711391
28785;9.884312;0.058538;0.659139;-0.016703;-0.004236;-0.012399;-0.740479;-0.233643;0.471924;-0.154960;-0.673921;0.126110;-0.711276
28786;9.906462;0.147860;0.528952;0.008849;-0.002100;-0.015051;-0.742676;-0.232910;0.481445;-0.155005;-0.673875;0.126111;-0.711310
28787;9.908594;0.214280;0.509751;-0.022285;-0.028614;-0.023253;-0.742920;-0.238281;0.473145;-0.155096;-0.674042;0.126191;-0.711117
28788;9.947137;0.032409;0.475229;0.013655;0.002749;-0.026924;-0.738037;-0.236084;0.476074;-0.155207;-0.673986;0.126056;-0.711170
28789;9.693337;0.176038;0.385236;0.029482;0.014778;-0.017601;-0.742676;-0.238281;0.479980;-0.155167;-0.673923;0.125874;-0.711272
28790;9.706257;0.175640;0.480319;0.027254;0.014109;-0.012238;-0.744385;-0.230713;0.482666;-0.155047;-0.673875;0.125673;-0.711378
28791;9.807502;0.271144;0.488930;0.011122;0.003572;-0.008552;-0.737061;-0.230957;0.481689;-0.154831;-0.673884;0.125578;-0.711433
28792;9.881310;0.213731;0.578633;-0.037169;-0.029077;-0.016772;-0.742188;-0.243164;0.478516;-0.154996;-0.674056;0.125821;-0.711192
28793;9.950508;0.002605;0.543519;-0.008689;0.000783;-0.022440;-0.743408;-0.238525;0.482666;-0.155213;-0.674039;0.125801;-0.711164
28794;9.822300;0.052424;0.424321;0.011872;-0.002057;-0.011434;-0.742188;-0.231445;0.471191;-0.155118;-0.674088;0.125690;-0.711158
28795;9.780274;0.053659;0.491490;0.013278;-0.011809;-0.015088;-0.733154;-0.239990;0.473145;-0.155074;-0.674090;0.125670;-0.711169
28796;9.866797;0.057516;0.506065;0.054627;-0.000047;-0.009785;-0.745361;-0.240967;0.471191;-0.154971;-0.674129;0.125462;-0.711191
28797;9.820193;0.268227;0.494921;0.041056;-0.011930;-0.007270;-0.739014;-0.236084;0.471191;-0.154820;-0.674148;0.125282;-0.711238
28798;9.921726;0.211506;0.514753;0.006216;0.000723;-0.011739;-0.739990;-0.235596;0.473145;-0.154902;-0.674078;0.125311;-0.711282
28799;9.888694;0.196247;0.369851;0.012502;0.014436;-0.015618;-0.749268;-0.234863;0.483887;-0.154944;-0.673955;0.125239;-0.711402
28800;9.774627;0.242388;0.420223;-0.024227;-0.007483;-0.014700;-0.734863;-0.227783;0.477783;-0.154958;-0.673978;0.125292;-0.711367
28801;9.846593;0.076322;0.533800;-0.014484;-0.000429;-0.015319;-0.744141;-0.244385;0.489990;-0.155019;-0.673978;0.125401;-0.711335
28802;9.826319;0.040295;0.567390;0.014560;-0.005536;-0.006654;-0.739990;-0.239990;0.478271;-0.154906;-0.674109;0.125275;-0.711258
28803;9.980737;0.024627;0.620630;0.040079;-0.002618;-0.008237;-0.737305;-0.232666;0.487061;-0.154748;-0.674164;0.125079;-0.711275
28804;9.853116;0.228699;0.398087;0.058511;0.013442;-0.014531;-0.741211;-0.229492;0.481934;-0.154386;-0.674243;0.124686;-0.711347
28805;9.764963;0.258564;0.388180;0.020312;-0.011730;-0.017816;-0.740234;-0.231934;0.476318;-0.154201;-0.674362;0.124535;-0.711301
28806;9.803416;0.133145;0.518618;0.019920;-0.005784;-0.018520;-0.737061;-0.238770;0.481934;-0.154131;-0.674395;0.124417;-0.711305
28807;9.834786;0.185606;0.503097;0.036458;-0.004258;-0.014795;-0.737305;-0.230225;0.476318;-0.154026;-0.674500;0.124211;-0.711264
28808;9.892455;0.189294;0.512326;0.014985;-0.008472;-0.012601;-0.740479;-0.232666;0.478027;-0.153954;-0.674546;0.124177;-0.711242
28809;9.963205;0.146972;0.455472;0.016532;0.016315;-0.012588;-0.738770;-0.233154;0.486816;-0.153886;-0.674449;0.124070;-0.711368
28810;9.787671;0.234870;0.429202;0.006592;0.009694;-0.018220;-0.744141;-0.232178;0.481934;-0.153848;-0.674472;0.123962;-0.711373
28811;9.831980;0.100928;0.530746;-0.004440;-0.003497;-0.016898;-0.741455;-0.238037;0.478271;-0.153825;-0.674493;0.123931;-0.711363
28812;9.845573;0.072798;0.541203;0.031966;-0.004369;-0.020169;-0.743164;-0.238037;0.484131;-0.153759;-0.674547;0.123713;-0.711365
28813;9.881022;0.099979;0.505800;0.044232;-0.006594;-0.017978;-0.741943;-0.234863;0.476807;-0.153538;-0.674671;0.123389;-0.711351
28814;9.868955;0.197117;0.478353;0.062575;0.018515;-0.009023;-0.745361;-0.235107;0.480469;-0.153228;-0.674598;0.123029;-0.711550
28815;9.747280;0.282011;0.400946;0.035541;0.018016;-0.007918;-0.745361;-0.231934;0.482422;-0.153004;-0.674512;0.122789;-0.711721
28816;9.785888;0.201156;0.528491;-0.005055;-0.006221;-0.003802;-0.744873;-0.235596;0.471924;-0.152903;-0.674534;0.122832;-0.711714
28817;9.818913;0.177704;0.512644;0.001913;-0.010445;-0.017307;-0.740723;-0.235596;0.478271;-0.152995;-0.674512;0.122837;-0.711714
28818;9.939413;0.050752;0.520424;0.022748;-0.016307;-0.010427;-0.741699;-0.235840;0.479248;-0.152905;-0.674616;0.122754;-0.711649
28819;9.877955;0.140195;0.436175;0.058514;0.014873;-0.012320;-0.740723;-0.225342;0.476074;-0.152642;-0.674585;0.122395;-0.711797
28820;9.803956;0.261309;0.418065;0.024802;0.000973;-0.011805;-0.735352;-0.238525;0.482178;-0.152450;-0.674571;0.122275;-0.711872
28821;9.881892;0.116630;0.584520;0.002956;0.004420;-0.010079;-0.739014;-0.239258;0.482422;-0.152569;-0.674578;0.122311;-0.711834
28822;9.874445;0.158357;0.454914;0.023659;-0.001234;-0.018518;-0.743164;-0.237793;0.479248;-0.152584;-0.674641;0.122157;-0.711798
28823;9.900110;0.081885;0.488678;0.037836;-0.000677;-0.016721;-0.739502;-0.228516;0.476318;-0.152467;-0.674675;0.121908;-0.711833
28824;9.824857;0.203219;0.393418;0.061083;0.006120;-0.017473;-0.736084;-0.235352;0.483887;-0.152164;-0.674688;0.121541;-0.711948
28825;9.863262;0.262593;0.502250;0.023918;-0.004902;-0.014627;-0.742432;-0.230225;0.491455;-0.152128;-0.674789;0.121429;-0.711879
28826;9.919497;0.157793;0.536699;0.016668;0.012227;-0.016002;-0.744141;-0.244141;0.478027;-0.151967;-0.674818;0.121242;-0.711918
28827;9.959044;0.111687;0.491906;0.028616;0.028231;-0.007783;-0.738037;-0.230469;0.477539;-0.151972;-0.674643;0.121065;-0.712113
28828;9.839901;0.106759;0.414304;0.062109;0.035330;-0.009427;-0.733398;-0.234375;0.484619;-0.151691;-0.674492;0.120711;-0.712376
28829;9.741729;0.077866;0.470063;0.093756;0.006206;-0.005766;-0.738770;-0.237793;0.485840;-0.151247;-0.674625;0.120246;-0.712423
28830;9.773067;-0.009384;0.639099;0.132907;-0.015241;-0.004290;-0.745361;-0.234619;0.480469;-0.150549;-0.674919;0.119545;-0.712411
28831;9.860351;0.027174;0.644057;0.163563;-0.005963;-0.008023;-0.741211;-0.234863;0.483398;-0.149639;-0.675129;0.118588;-0.712563
28832;10.018028;0.094779;0.503309;0.157290;0.017632;-0.005447;-0.738525;-0.234619;0.488770;-0.148826;-0.675218;0.117686;-0.712798
28833;9.969544;0.120550;0.279067;0.126820;0.066722;-0.016478;-0.748535;-0.227051;0.486328;-0.148319;-0.675035;0.116857;-0.713213
28834;9.791375;0.250321;0.101128;0.073726;0.075816;-0.021058;-0.741699;-0.229980;0.486572;-0.147966;-0.674689;0.116228;-0.713717
28835;9.643840;0.248431;0.264864;0.032137;0.044911;-0.030019;-0.740723;-0.231445;0.481201;-0.147988;-0.674515;0.115895;-0.713931
28836;9.784595;0.150043;0.654974;0.024330;0.027055;-0.014183;-0.743408;-0.230225;0.476562;-0.147994;-0.674391;0.115737;-0.714073
28837;9.736328;0.238896;0.742786;0.041571;0.033346;-0.004925;-0.748535;-0.223633;0.492432;-0.147828;-0.674201;0.115505;-0.714324
28838;9.726410;0.306117;0.786538;0.024365;0.005558;0.005535;-0.747070;-0.228027;0.488770;-0.147488;-0.674245;0.115416;-0.714367
28839;9.869129;0.260710;0.667053;0.006667;-0.013781;0.001227;-0.745605;-0.223145;0.487061;-0.147337;-0.674366;0.115442;-0.714280
28840;9.896085;0.181256;0.532481;-0.014476;-0.032216;-0.010137;-0.740234;-0.234863;0.487061;-0.147324;-0.674570;0.115569;-0.714069
28841;9.871515;0.062540;0.440369;-0.011294;-0.030752;-0.015274;-0.748779;-0.231201;0.480225;-0.147502;-0.674791;0.115673;-0.713807
28842;9.925441;-0.014935;0.401350;0.021715;-0.014777;-0.013337;-0.747070;-0.229980;0.479736;-0.147388;-0.674875;0.115511;-0.713777
28843;9.836675;0.121060;0.454477;0.046095;0.004355;-0.008166;-0.750000;-0.234863;0.486572;-0.147133;-0.674870;0.115227;-0.713880
28844;9.778402;0.228868;0.510333;0.025656;0.015846;-0.008916;-0.739502;-0.232178;0.485840;-0.147001;-0.674814;0.115006;-0.713996
28845;9.819637;0.260569;0.524541;-0.008431;0.001286;-0.007908;-0.732178;-0.230225;0.493164;-0.147134;-0.674829;0.115107;-0.713938
28846;9.875475;0.123554;0.569862;-0.030720;-0.001866;-0.007601;-0.744873;-0.224609;0.488037;-0.147425;-0.674907;0.115413;-0.713755
28847;9.969759;0.073008;0.472132;0.001262;0.009816;-0.006407;-0.734375;-0.233887;0.485840;-0.147370;-0.674876;0.115432;-0.713793
28848;9.888718;0.153554;0.413507;0.022471;0.011917;-0.005091;-0.748047;-0.229492;0.485596;-0.147389;-0.674878;0.115396;-0.713793
28849;9.833808;0.249217;0.452988;0.029746;0.012067;-0.009544;-0.748047;-0.232422;0.479736;-0.147211;-0.674848;0.115186;-0.713892
28850;9.702004;0.185458;0.613365;0.004359;-0.020012;-0.012450;-0.743164;-0.224609;0.486084;-0.147196;-0.674945;0.115133;-0.713812
28851;9.828575;0.157744;0.657758;0.029616;-0.015983;-0.008076;-0.743408;-0.225830;0.473633;-0.146997;-0.675094;0.115025;-0.713729
28852;9.879281;0.321898;0.511493;-0.008238;-0.021582;-0.022645;-0.741455;-0.224854;0.483398;-0.147123;-0.675160;0.115047;-0.713638
28853;9.906643;0.046422;0.494382;-0.004444;-0.000481;-0.014499;-0.736084;-0.221191;0.490234;-0.147192;-0.675164;0.115095;-0.713611
28854;9.801712;0.131958;0.401855;0.019237;0.020330;-0.009956;-0.743164;-0.232178;0.479736;-0.147135;-0.675128;0.115067;-0.713662
28855;9.814303;0.133234;0.497401;0.007953;0.012065;-0.004203;-0.742676;-0.223877;0.487305;-0.147131;-0.675040;0.115044;-0.713750
28856;9.867352;0.162857;0.528836;0.016174;0.009895;-0.010850;-0.739502;-0.225586;0.482910;-0.147049;-0.675028;0.114978;-0.713788
28857;9.900897;0.093702;0.522146;0.001584;-0.007677;-0.011215;-0.739502;-0.227539;0.483398;-0.147091;-0.675085;0.115037;-0.713716
28858;9.940324;0.137841;0.462372;0.028137;0.020972;-0.005304;-0.742676;-0.232666;0.484863;-0.146989;-0.675002;0.114931;-0.713833
28859;9.820790;0.345224;0.346243;0.003953;0.029071;-0.012986;-0.744141;-0.233398;0.482178;-0.147086;-0.674853;0.114878;-0.713963
28860;9.740476;0.293082;0.550138;-0.052656;-0.014682;-0.016203;-0.747559;-0.227539;0.485596;-0.147469;-0.674880;0.115178;-0.713810
28861;9.818759;0.152992;0.717169;-0.045695;-0.018037;-0.019435;-0.750977;-0.229004;0.488037;-0.147739;-0.674947;0.115417;-0.713652
28862;9.830355;0.105105;0.662530;-0.035968;-0.010745;-0.010937;-0.743164;-0.225830;0.479004;-0.147877;-0.674979;0.115606;-0.713562
28863;9.974239;0.125049;0.524979;-0.019357;0.008036;-0.013046;-0.751953;-0.231689;0.488037;-0.148017;-0.674886;0.115725;-0.713602
28864;9.924251;0.116141;0.396023;-0.015268;0.025227;-0.010058;-0.743896;-0.221191;0.487549;-0.148068;-0.674730;0.115733;-0.713738
28865;9.871729;0.091039;0.446884;-0.013685;0.029425;-0.006621;-0.753174;-0.233398;0.483887;-0.148115;-0.674561;0.115863;-0.713867
28866;9.804914;0.143207;0.478853;-0.016237;0.023838;-0.017482;-0.745361;-0.233154;0.477051;-0.148213;-0.674398;0.115813;-0.714008
28867;9.800318;0.065157;0.600822;-0.028393;-0.006337;-0.015554;-0.746826;-0.235352;0.476562;-0.148433;-0.674380;0.115953;-0.713957
28868;9.830501;0.008401;0.610939;0.009951;0.012053;-0.014966;-0.739746;-0.230225;0.480469;-0.148446;-0.674293;0.115823;-0.714057
28869;9.781641;0.156640;0.524324;0.013511;0.002211;-0.013971;-0.740723;-0.232422;0.478760;-0.148469;-0.674308;0.115787;-0.714044
28870;9.820696;0.141105;0.558358;0.000769;-0.000746;-0.015411;-0.739502;-0.226562;0.486328;-0.148574;-0.674314;0.115803;-0.714014
28871;9.778044;0.173476;0.540436;-0.005424;-0.007263;-0.016556;-0.739746;-0.227295;0.479248;-0.148684;-0.674396;0.115906;-0.713897
28872;9.928023;0.095195;0.551529;-0.012788;-0.002955;-0.016719;-0.744141;-0.230713;0.475342;-0.148848;-0.674400;0.116028;-0.713839
28873;9.929268;0.067370;0.471590;0.015591;0.016194;-0.017820;-0.750488;-0.230225;0.469482;-0.148847;-0.674296;0.115888;-0.713961
28874;9.961429;0.059605;0.463646;0.024312;0.024595;-0.015432;-0.739258;-0.230225;0.485107;-0.148720;-0.674101;0.115632;-0.714212
28875;9.951309;0.112707;0.431894;0.056053;0.049787;-0.012737;-0.747803;-0.239014;0.486572;-0.148544;-0.673915;0.115312;-0.714477
28876;9.775757;0.230617;0.474432;0.029232;0.043457;-0.011200;-0.747559;-0.236816;0.481201;-0.148466;-0.673728;0.115061;-0.714710
28877;9.845814;0.112295;0.607838;-0.004438;0.037659;-0.016817;-0.741943;-0.227539;0.476074;-0.148598;-0.673511;0.114988;-0.714898
28878;9.782232;0.076089;0.640644;-0.001220;0.035422;-0.016282;-0.745117;-0.229980;0.482178;-0.148725;-0.673290;0.114990;-0.715079
28879;9.735132;0.011708;0.670824;0.014814;0.032899;-0.016637;-0.744629;-0.228516;0.487549;-0.148739;-0.673138;0.114874;-0.715239
28880;9.757480;0.054319;0.625753;0.045120;0.017389;-0.014690;-0.745605;-0.226562;0.475830;-0.148555;-0.673145;0.114635;-0.715308
28881;9.817421;0.061767;0.624865;0.063767;0.012278;-0.009169;-0.741699;-0.237061;0.475342;-0.148212;-0.673132;0.114293;-0.715447
28882;9.794136;0.176267;0.566739;0.066665;0.006545;-0.007421;-0.746582;-0.229248;0.483398;-0.147942;-0.673168;0.113943;-0.715525
28883;9.828897;0.218004;0.610195;0.037010;-0.008364;-0.008380;-0.743164;-0.226074;0.482666;-0.147737;-0.673284;0.113789;-0.715482
28884;9.864479;0.166661;0.591170;0.016661;0.000221;-0.019586;-0.744629;-0.229736;0.475586;-0.147745;-0.673335;0.113727;-0.715442
28885;9.858029;0.128272;0.477648;0.001148;0.010065;-0.012606;-0.740723;-0.224854;0.477051;-0.147804;-0.673262;0.113730;-0.715499
28886;9.814752;0.128341;0.471911;-0.007810;0.020023;-0.010945;-0.745605;-0.236816;0.478271;-0.147935;-0.673130;0.113851;-0.715576
28887;9.798097;0.051974;0.578636;-0.007525;0.013213;-0.009426;-0.753662;-0.218994;0.480469;-0.148058;-0.673044;0.113898;-0.715624
28888;9.838439;0.023383;0.687166;0.006976;-0.005793;-0.004541;-0.741699;-0.223145;0.477783;-0.147868;-0.673068;0.113911;-0.715639
28889;9.820284;0.112819;0.683488;0.031697;-0.006537;-0.005387;-0.748535;-0.229004;0.479980;-0.147703;-0.673142;0.113865;-0.715611
28890;9.842996;0.153457;0.632499;0.020924;-0.013657;-0.003998;-0.748291;-0.221191;0.474854;-0.147537;-0.673243;0.113814;-0.715558
28891;9.979432;0.133685;0.547119;0.033735;0.004505;-0.002560;-0.751953;-0.224854;0.473877;-0.147264;-0.673218;0.113686;-0.715658
28892;9.804189;0.231137;0.426683;0.015036;0.000505;-0.012351;-0.745605;-0.230713;0.480713;-0.147131;-0.673192;0.113565;-0.715729
28893;9.849519;0.100273;0.532748;0.019470;0.005148;-0.011514;-0.747314;-0.234375;0.481445;-0.147083;-0.673198;0.113479;-0.715747
28894;9.718254;0.127864;0.589167;0.024882;-0.001134;-0.009857;-0.741211;-0.223877;0.481201;-0.146987;-0.673249;0.113349;-0.715739
28895;9.839018;0.035853;0.759328;0.022252;-0.018652;-0.003019;-0.741455;-0.229492;0.473877;-0.146869;-0.673397;0.113398;-0.715616
28896;9.962740;0.140322;0.633935;0.059426;0.018675;0.003692;-0.744141;-0.222900;0.486816;-0.146558;-0.673326;0.113168;-0.715784
28897;9.848865;0.364109;0.397051;0.025295;0.002810;-0.003779;-0.739746;-0.240234;0.475830;-0.146421;-0.673372;0.113161;-0.715770
28898;9.908875;0.156088;0.522730;-0.013461;-0.000107;-0.009099;-0.745850;-0.228027;0.480469;-0.146660;-0.673356;0.113298;-0.715714
28899;9.811300;0.081026;0.583698;0.018088;0.018294;-0.007467;-0.750244;-0.228516;0.480713;-0.146600;-0.673271;0.113237;-0.715815
28900;9.755181;0.175527;0.622881;0.008169;0.015873;0.003683;-0.752441;-0.225830;0.479248;-0.146481;-0.673172;0.113256;-0.715930
28901;9.928989;0.119796;0.587505;0.011583;0.018689;0.005095;-0.750244;-0.225098;0.480957;-0.146296;-0.673048;0.113242;-0.716087
28902;9.940086;0.192798;0.514721;0.016665;0.019895;-0.008983;-0.745850;-0.229492;0.483643;-0.146199;-0.672949;0.113153;-0.716213
28903;9.952760;0.178415;0.532120;-0.005405;0.013577;-0.012963;-0.745117;-0.220703;0.481934;-0.146323;-0.672892;0.113222;-0.716231
28904;9.804506;0.046395;0.560753;0.022951;0.031716;-0.013157;-0.744141;-0.227783;0.484131;-0.146275;-0.672748;0.113140;-0.716389
28905;9.721415;0.189217;0.573857;0.024750;0.016393;-0.006791;-0.747803;-0.223145;0.485840;-0.146216;-0.672711;0.113096;-0.716443
28906;9.736888;0.179583;0.652333;0.020938;0.008421;-0.007293;-0.744385;-0.217041;0.485352;-0.146122;-0.672715;0.113077;-0.716462
28907;9.818036;0.208588;0.612691;0.017391;0.004707;-0.007963;-0.751221;-0.227539;0.480469;-0.146065;-0.672736;0.113142;-0.716443
28908;9.948304;0.198816;0.559136;-0.017958;-0.006437;-0.010250;-0.745850;-0.230957;0.487549;-0.146159;-0.672756;0.113272;-0.716385
28909;9.938144;0.139737;0.472345;-0.011421;0.020687;-0.016287;-0.751953;-0.222168;0.477051;-0.146374;-0.672672;0.113376;-0.716403
28910;9.744063;0.080112;0.488270;-0.027338;0.004482;-0.012062;-0.744873;-0.225586;0.477539;-0.146501;-0.672596;0.113542;-0.716422
28911;9.785461;0.041169;0.670210;-0.020131;-0.004871;-0.012686;-0.750000;-0.221680;0.473389;-0.146680;-0.672604;0.113737;-0.716347
28912;9.762606;0.080856;0.700808;-0.003747;-0.019136;-0.014062;-0.738525;-0.224121;0.473389;-0.146672;-0.672687;0.113785;-0.716262
28913;9.901432;0.113452;0.668898;-0.004999;-0.010016;-0.013404;-0.748047;-0.222412;0.475342;-0.146819;-0.672735;0.113942;-0.716163
28914;9.908424;0.165824;0.542083;-0.025199;-0.001262;-0.011208;-0.746338;-0.224609;0.472900;-0.146957;-0.672694;0.114137;-0.716142
28915;9.835567;0.099148;0.473689;-0.038109;0.029715;-0.016752;-0.749023;-0.234375;0.482422;-0.147250;-0.672452;0.114336;-0.716277
28916;9.721999;0.114718;0.520032;-0.042352;0.022803;-0.005432;-0.755371;-0.227783;0.480713;-0.147538;-0.672282;0.114627;-0.716331
28917;9.793056;0.058686;0.631272;-0.039756;0.003765;-0.007781;-0.743408;-0.234863;0.473633;-0.147702;-0.672210;0.114871;-0.716326
28918;9.872538;0.041926;0.687488;-0.029311;-0.012728;-0.010525;-0.745605;-0.230225;0.475342;-0.147951;-0.672247;0.115113;-0.716201
28919;9.949419;-0.087664;0.707841;0.001676;0.003332;-0.012833;-0.744141;-0.230225;0.473877;-0.148016;-0.672228;0.115147;-0.716199
28920;9.989596;-0.091431;0.580510;0.046144;0.023680;-0.004426;-0.747070;-0.234619;0.478027;-0.147814;-0.672131;0.114947;-0.716365
28921;9.866688;0.033608;0.494307;0.044123;0.040141;-0.000681;-0.738281;-0.224609;0.483398;-0.147618;-0.671946;0.114737;-0.716612
28922;9.839497;-0.025506;0.577110;0.043814;0.050663;0.007428;-0.746094;-0.221680;0.475586;-0.147482;-0.671722;0.114740;-0.716849
28923;9.798574;-0.025574;0.563034;0.020744;0.053506;0.002328;-0.751221;-0.226318;0.477539;-0.147380;-0.671413;0.114731;-0.717162
28924;9.952174;-0.151169;0.502289;0.019489;0.042485;0.000428;-0.741699;-0.226562;0.479736;-0.147263;-0.671175;0.114683;-0.717416
28925;10.151667;-0.380054;0.461951;0.027048;0.045171;-0.004364;-0.743896;-0.226807;0.481445;-0.147270;-0.670962;0.114686;-0.717613
28926;10.214623;-0.702151;0.380489;0.097316;0.044700;0.000081;-0.752197;-0.218262;0.471924;-0.146855;-0.670839;0.114297;-0.717876
28927;10.154111;-0.815827;0.419364;0.205954;0.043435;0.013212;-0.745850;-0.225586;0.474609;-0.145564;-0.670788;0.113198;-0.718360
28928;10.067390;-0.929530;0.439767;0.324342;0.035221;0.024107;-0.751465;-0.224121;0.477539;-0.143676;-0.670943;0.111525;-0.718857
28929;9.827109;-0.847108;0.352262;0.298760;-0.030033;0.017847;-0.748291;-0.218506;0.477295;-0.141868;-0.671459;0.110013;-0.718967
28930;9.882862;-1.114838;0.588347;0.371982;-0.083420;0.017677;-0.751465;-0.214355;0.483154;-0.139612;-0.672374;0.108155;-0.718835
28931;9.789225;-1.011037;0.654779;0.506883;-0.090120;0.006999;-0.740479;-0.214111;0.489014;-0.136636;-0.673491;0.105440;-0.718765
28932;9.708244;-1.053701;0.851485;0.516820;-0.103084;0.013590;-0.741455;-0.219971;0.492676;-0.133715;-0.674709;0.102849;-0.718547
28933;9.595699;-1.153613;1.154996;0.500390;-0.098275;0.024865;-0.755371;-0.199219;0.498291;-0.130856;-0.675862;0.100374;-0.718340
28934;9.550452;-1.330957;1.450178;0.404133;-0.057615;0.003516;-0.741699;-0.201172;0.496826;-0.128494;-0.676647;0.098261;-0.718320
28935;9.493021;-2.240055;1.789423;0.215342;0.052864;0.079551;-0.743896;-0.202637;0.494629;-0.126975;-0.676514;0.097675;-0.718795
28936;9.533638;-2.860421;2.177865;-0.048104;0.253196;0.287127;-0.753418;-0.202148;0.491211;-0.125839;-0.674718;0.099572;-0.720421
28937;9.463648;-3.002981;2.362076;-0.253766;0.471349;0.488403;-0.752197;-0.188232;0.479004;-0.124764;-0.671200;0.103527;-0.723330
28938;9.589190;-3.477331;2.358077;-0.488484;0.589437;0.701082;-0.768555;-0.183350;0.478516;-0.123786;-0.666490;0.109997;-0.726889
28939;10.361211;-4.180275;2.733527;-0.466291;0.778594;0.902313;-0.778076;-0.191406;0.466064;-0.121637;-0.660415;0.117285;-0.731642
28940;11.419013;-4.352492;2.814573;-0.332558;1.134892;1.056048;-0.781494;-0.166992;0.456543;-0.118199;-0.652059;0.124153;-0.738535
28941;12.099328;-4.741918;2.703061;-0.208340;1.484403;1.175244;-0.794678;-0.161621;0.428467;-0.113844;-0.641421;0.130805;-0.747335
28942;12.217394;-4.764665;2.544407;-0.061160;1.704998;1.355344;-0.809326;-0.140869;0.415283;-0.107730;-0.629145;0.137099;-0.757479
28943;12.001454;-3.828776;2.034179;-0.169053;1.722004;1.550479;-0.819092;-0.119873;0.385254;-0.101142;-0.616228;0.145271;-0.767417
28944;11.212118;-3.322426;1.566861;-0.845727;1.444825;1.665075;-0.841553;-0.106934;0.361816;-0.096878;-0.604115;0.158470;-0.774949
28945;10.307690;-3.843616;1.448884;-1.620492;1.023206;1.767434;-0.844727;-0.090576;0.337646;-0.095162;-0.593683;0.177305;-0.779133
28946;9.467597;-4.854596;1.727191;-2.173886;0.562670;1.995530;-0.852051;-0.073486;0.328369;-0.093830;-0.585128;0.200988;-0.780016
28947;9.529288;-5.380409;1.868637;-2.199182;0.228063;2.318166;-0.861816;-0.051270;0.331055;-0.089933;-0.577781;0.226572;-0.778939
28948;9.929398;-4.976378;1.986556;-2.010630;-0.047240;2.595916;-0.861816;-0.020020;0.327637;-0.082917;-0.571377;0.252496;-0.776466
28949;10.587126;-4.859527;2.374624;-1.733837;-0.229883;2.689185;-0.873047;0.003174;0.321533;-0.073408;-0.565708;0.276948;-0.773230
28950;10.847259;-5.025955;2.794861;-1.244759;-0.252006;2.613849;-0.879395;0.044678;0.329346;-0.061691;-0.560330;0.297314;-0.770603
28951;10.840389;-4.905219;2.842927;-0.580172;-0.140832;2.522430;-0.877930;0.077881;0.330811;-0.047575;-0.554500;0.312789;-0.769694
28952;10.344423;-3.923379;2.391862;-0.132220;0.007838;2.404765;-0.873291;0.105469;0.326660;-0.032457;-0.547980;0.324581;-0.770267
28953;9.573439;-3.022132;1.823661;-0.169550;0.075883;2.188119;-0.875000;0.139648;0.330811;-0.019058;-0.541444;0.335360;-0.770719
28954;8.428075;-2.791959;1.501408;-0.554156;-0.031075;1.906524;-0.868408;0.163330;0.327393;-0.008952;-0.536145;0.347370;-0.769287
28955;7.707830;-3.702309;1.622428;-0.851278;-0.218642;1.654118;-0.875977;0.181641;0.330811;-0.001242;-0.532624;0.360073;-0.765936
28956;7.356311;-4.645235;1.881143;-0.756971;-0.310576;1.466823;-0.866211;0.199219;0.325928;0.005663;-0.530013;0.371525;-0.762249
28957;7.001472;-4.972456;1.901117;-0.428323;-0.257782;1.364599;-0.861084;0.211182;0.343506;0.012971;-0.527161;0.380633;-0.759639
28958;6.668432;-4.873858;1.870284;-0.088847;-0.137690;1.293600;-0.860107;0.242188;0.345459;0.020899;-0.523648;0.387301;-0.758521
28959;6.192009;-4.380314;1.661512;0.143200;-0.005680;1.223755;-0.856201;0.249268;0.342773;0.029061;-0.519461;0.392107;-0.758662
28960;5.720298;-3.627283;1.408426;0.141019;0.041116;1.131369;-0.859863;0.262207;0.339844;0.036396;-0.515187;0.396543;-0.758955
28961;5.473472;-3.154579;1.234563;-0.036180;0.018900;0.997782;-0.846191;0.277344;0.342529;0.042149;-0.511476;0.401512;-0.758554
28962;5.396990;-2.947457;1.184111;-0.214440;-0.024268;0.815866;-0.852295;0.281250;0.340820;0.046212;-0.508714;0.406733;-0.757392
28963;5.478305;-3.045212;1.174515;-0.266458;-0.035068;0.611730;-0.839844;0.296143;0.337891;0.048733;-0.506671;0.411434;-0.756063
28964;5.626774;-3.108886;1.164880;-0.164332;0.000097;0.399324;-0.842773;0.296387;0.343750;0.050303;-0.505122;0.414541;-0.755299
28965;5.555733;-2.990685;1.070279;0.012856;0.035619;0.188695;-0.842773;0.299561;0.350098;0.051163;-0.503994;0.415657;-0.755382
28966;5.446546;-2.698940;0.994540;0.163820;0.022756;-0.016277;-0.846191;0.298828;0.344727;0.051446;-0.503613;0.414927;-0.756018
28967;5.465777;-2.430898;0.991008;0.280150;-0.025740;-0.242619;-0.838867;0.295410;0.341064;0.050938;-0.504260;0.412499;-0.756949
28968;5.481574;-2.322833;1.057720;0.404187;-0.074442;-0.476022;-0.833740;0.295166;0.346191;0.049668;-0.505974;0.408260;-0.758187
28969;5.492137;-2.330256;1.200218;0.601667;-0.137093;-0.724068;-0.845459;0.292480;0.334961;0.047939;-0.508866;0.401635;-0.759899
28970;5.663872;-2.282337;1.437221;0.844298;-0.220314;-0.957866;-0.845703;0.281982;0.348145;0.045997;-0.512915;0.392434;-0.762101
28971;5.973155;-2.043001;1.729796;1.011606;-0.335510;-1.190881;-0.849121;0.263184;0.350830;0.043706;-0.518353;0.381041;-0.764335
28972;6.463594;-1.855597;2.158150;1.025952;-0.465469;-1.417655;-0.853516;0.250244;0.343506;0.040416;-0.525230;0.368464;-0.765986
28973;7.198525;-1.794932;2.543048;0.977508;-0.520070;-1.636494;-0.855469;0.239014;0.351318;0.035659;-0.533018;0.355135;-0.767137
28974;7.893440;-1.644305;2.795134;0.886356;-0.478006;-1.824732;-0.851807;0.220947;0.357178;0.029209;-0.541005;0.341427;-0.768042
28975;8.781895;-1.391752;2.937548;0.727324;-0.347500;-2.001767;-0.858643;0.197754;0.357178;0.020574;-0.548561;0.327826;-0.768887
28976;9.594435;-1.283308;2.865228;0.540804;-0.147104;-2.190414;-0.865479;0.167480;0.359131;0.009325;-0.555206;0.314470;-0.769914
28977;10.302945;-1.446702;2.821280;0.407789;0.041095;-2.396266;-0.867188;0.141602;0.364258;-0.004359;-0.560991;0.300902;-0.771186
28978;11.017152;-1.705493;2.668526;0.429200;0.152501;-2.594471;-0.863037;0.105713;0.360596;-0.019436;-0.566339;0.286087;-0.772681
28979;12.406255;-1.648209;2.400486;0.573199;0.193856;-2.733309;-0.871094;0.071533;0.353271;-0.034800;-0.571499;0.269515;-0.774299
28980;14.373391;-1.359407;2.281680;0.710258;0.198198;-2.860314;-0.874756;0.033203;0.343750;-0.050316;-0.576634;0.251282;-0.775770
28981;16.604111;-1.583924;2.602801;0.906158;0.074435;-3.046732;-0.864746;0.003418;0.341797;-0.065813;-0.582668;0.230765;-0.776475
28982;19.357566;-2.689554;3.262780;1.320068;-0.234121;-3.322979;-0.863770;-0.032227;0.353271;-0.080385;-0.591013;0.206184;-0.775713
28983;20.465567;-4.446810;4.390976;1.962133;-0.752730;-3.727258;-0.855225;-0.077881;0.365967;-0.093402;-0.603208;0.175583;-0.772390
28984;17.653716;-4.833644;4.500468;2.635057;-1.180243;-3.878727;-0.826416;-0.111328;0.386230;-0.103271;-0.618027;0.139977;-0.766670
28985;13.775033;-3.624745;3.482384;2.584787;-1.410566;-3.569806;-0.809814;-0.148193;0.417969;-0.110973;-0.632968;0.106270;-0.758778
28986;10.283008;-2.331311;2.561247;1.789583;-1.417799;-2.888475;-0.791504;-0.174805;0.448730;-0.118444;-0.645863;0.081073;-0.749839
28987;8.101329;-1.863426;2.342216;0.816752;-1.417138;-2.014632;-0.764648;-0.186768;0.466309;-0.125606;-0.656766;0.066606;-0.740571
28988;7.981124;-1.611669;2.940700;0.123849;-1.419131;-1.257515;-0.752686;-0.207520;0.486328;-0.131806;-0.666297;0.060528;-0.731445
28989;8.260328;-1.192472;3.373136;-0.111881;-1.254460;-0.836362;-0.741455;-0.220703;0.496582;-0.136840;-0.674200;0.058035;-0.723437
28990;9.487196;-0.246808;3.150359;-0.196278;-0.923396;-0.763609;-0.734619;-0.225586;0.496826;-0.142064;-0.679871;0.056074;-0.717251
28991;10.791609;-0.107037;2.891366;-0.242750;-0.334496;-1.032508;-0.724854;-0.244385;0.520264;-0.149409;-0.682012;0.052163;-0.714013
28992;11.345697;-0.862197;2.473550;-0.155706;0.231676;-1.401284;-0.726807;-0.259766;0.497559;-0.158686;-0.680999;0.044934;-0.713470
28993;11.889705;-2.158995;2.404456;0.175793;0.608495;-1.638461;-0.719971;-0.270752;0.497803;-0.167609;-0.678131;0.033887;-0.714771
28994;11.955923;-3.122410;2.317062;0.711824;0.840155;-1.704459;-0.711914;-0.284180;0.497070;-0.173911;-0.674493;0.018956;-0.717255
28995;11.360749;-3.127233;1.770942;1.038351;0.852915;-1.629875;-0.701172;-0.303223;0.483887;-0.177889;-0.671049;0.002485;-0.719752
28996;10.553044;-2.936581;1.460354;0.958888;0.733062;-1.490296;-0.698730;-0.304932;0.484619;-0.181441;-0.668014;-0.012530;-0.721582
28997;9.649834;-2.838070;1.177510;0.599935;0.581675;-1.256507;-0.697510;-0.310303;0.488525;-0.185558;-0.665237;-0.023835;-0.722813
28998;8.871453;-2.863497;1.009566;0.083593;0.406424;-0.949874;-0.692871;-0.329346;0.479980;-0.190709;-0.662706;-0.030037;-0.723566
28999;8.458525;-3.137233;1.026335;-0.415905;0.227165;-0.603778;-0.688477;-0.335449;0.469482;-0.196569;-0.660514;-0.031008;-0.723961
29000;8.154460;-3.471486;1.212981;-0.763193;0.050542;-0.267984;-0.689453;-0.339844;0.473389;-0.202355;-0.658881;-0.027726;-0.723989
29001;8.242974;-3.624570;1.441479;-0.921600;-0.078304;0.005047;-0.680908;-0.344238;0.466309;-0.207386;-0.657788;-0.021750;-0.723763
29002;8.387202;-3.668144;1.605043;-0.920012;-0.104183;0.213551;-0.694580;-0.349609;0.456299;-0.211144;-0.656854;-0.014573;-0.723705
29003;8.525270;-3.756032;1.773385;-0.775251;-0.050379;0.373864;-0.692871;-0.350586;0.451172;-0.213128;-0.655831;-0.007465;-0.724159
29004;8.524150;-3.734288;1.795971;-0.526201;0.048148;0.480808;-0.701416;-0.349854;0.453125;-0.213092;-0.654634;-0.001429;-0.725289
29005;8.447416;-3.693161;1.714056;-0.261470;0.132956;0.580752;-0.703613;-0.346436;0.439697;-0.211003;-0.653373;0.003421;-0.727028
29006;8.396634;-3.599515;1.643839;-0.013303;0.196492;0.695445;-0.695801;-0.331787;0.435303;-0.206866;-0.652137;0.007300;-0.729294
29007;8.436220;-3.500285;1.574569;0.195356;0.226364;0.846945;-0.712402;-0.317383;0.434326;-0.200671;-0.651037;0.010702;-0.731962
29008;8.618312;-3.313829;1.554507;0.356624;0.250277;1.015104;-0.724121;-0.305664;0.439697;-0.192567;-0.649995;0.014010;-0.735002
29009;8.895128;-3.034811;1.473709;0.428366;0.264180;1.185548;-0.727051;-0.288574;0.437256;-0.183018;-0.648894;0.017795;-0.738325
29010;9.243779;-2.851812;1.437701;0.435441;0.268576;1.348647;-0.741943;-0.274170;0.433594;-0.172407;-0.647661;0.022427;-0.741827
29011;9.649838;-2.849999;1.496819;0.453351;0.248498;1.509654;-0.747559;-0.254639;0.431152;-0.160677;-0.646435;0.027857;-0.745338
29012;10.234712;-2.765348;1.584290;0.540373;0.208250;1.679467;-0.760010;-0.227783;0.438965;-0.147388;-0.645399;0.033725;-0.748732
29013;11.182238;-2.700238;1.745061;0.652678;0.165925;1.831513;-0.774658;-0.201172;0.429688;-0.132502;-0.644555;0.039768;-0.751938
29014;12.388529;-2.384995;2.122162;0.796379;0.122925;1.936454;-0.775635;-0.177490;0.435059;-0.116135;-0.643907;0.045520;-0.754867
29015;13.643541;-2.247290;2.300128;0.885848;0.106987;1.985213;-0.786133;-0.149414;0.439941;-0.098948;-0.643210;0.050987;-0.757556
29016;14.527248;-2.058929;2.703478;0.961825;0.079003;2.034335;-0.799805;-0.120117;0.442383;-0.081002;-0.642499;0.056251;-0.759914
29017;15.262860;-1.706822;2.683777;0.964648;0.111663;2.075191;-0.810547;-0.088135;0.449219;-0.062768;-0.641317;0.061676;-0.762213
29018;16.552598;-1.292838;2.748630;0.785616;0.227099;2.140220;-0.813232;-0.055908;0.445801;-0.045120;-0.639027;0.068508;-0.764797
29019;18.011897;-0.793655;2.755858;0.521211;0.513711;2.207550;-0.819336;-0.028564;0.430420;-0.028603;-0.634521;0.077249;-0.768504
29020;18.018782;-0.447234;2.677497;0.156064;0.812217;2.250518;-0.817627;0.010254;0.426025;-0.013913;-0.627723;0.088418;-0.773274
29021;16.765380;-1.047251;2.978898;-0.208919;0.899742;2.223326;-0.828369;0.034180;0.419922;-0.001391;-0.620076;0.101783;-0.777910
29022;13.647713;-2.149006;3.220842;-0.389896;0.754905;2.180394;-0.830566;0.056885;0.407227;0.010022;-0.613144;0.116058;-0.781335
29023;11.172547;-2.635858;3.135270;-0.421643;0.416886;2.300789;-0.827148;0.087158;0.398926;0.022379;-0.608044;0.131061;-0.782690
29024;9.832306;-2.382904;3.118186;-0.677857;0.194759;2.604971;-0.829346;0.129150;0.394531;0.035664;-0.603817;0.149162;-0.782230
29025;9.658587;-2.409470;3.533752;-0.933680;0.274001;3.078498;-0.822510;0.152588;0.395508;0.050667;-0.598167;0.171210;-0.781227
29026;10.234603;-1.702134;3.911590;-1.026483;0.547259;3.454558;-0.823730;0.187012;0.396484;0.067182;-0.589728;0.195712;-0.780644
29027;10.503993;-1.283430;4.141819;-0.905899;0.858778;3.578106;-0.820068;0.230225;0.383545;0.084502;-0.578407;0.220008;-0.780962
29028;11.000332;-0.658434;4.158530;-0.555685;1.093379;3.499070;-0.819092;0.263672;0.374756;0.101883;-0.564687;0.242008;-0.782420
29029;11.458986;0.317273;3.788459;-0.170524;1.335821;3.158034;-0.807373;0.299561;0.358643;0.118014;-0.549119;0.260034;-0.785445
29030;11.236885;1.235233;3.184887;0.037450;1.589117;2.622811;-0.803223;0.344971;0.326660;0.131084;-0.532441;0.274157;-0.790039
29031;10.291204;2.099358;2.387688;-0.024146;1.809047;2.000427;-0.801025;0.358398;0.309326;0.139470;-0.515563;0.285755;-0.795667
29032;8.820861;2.803371;1.363902;-0.410634;1.866582;1.375654;-0.801270;0.374512;0.306152;0.141857;-0.500004;0.297115;-0.800996
29033;7.555824;2.825433;0.676769;-1.013092;1.741863;0.839991;-0.802734;0.380859;0.269287;0.138572;-0.487186;0.309869;-0.804629
29034;6.659642;2.167180;0.390119;-1.461358;1.517828;0.413832;-0.802002;0.386230;0.271729;0.131182;-0.477340;0.323477;-0.806412
29035;5.951173;1.443109;0.232763;-1.582970;1.194153;0.084562;-0.798096;0.383789;0.264648;0.122049;-0.470592;0.336049;-0.806671
29036;5.540953;0.743154;0.354040;-1.360485;0.820982;-0.163584;-0.796143;0.373291;0.259521;0.113320;-0.466790;0.345574;-0.806129
29037;5.422419;0.390134;0.690770;-0.828940;0.486494;-0.385754;-0.818359;0.366699;0.248779;0.106118;-0.465319;0.350292;-0.805924
29038;5.810771;0.290235;0.963288;-0.184071;0.247958;-0.631429;-0.816406;0.357422;0.256348;0.100312;-0.465517;0.349569;-0.806866
29039;6.221885;0.308175;1.152432;0.391783;0.116366;-0.932824;-0.813232;0.340576;0.252930;0.095244;-0.467042;0.343582;-0.809167
29040;6.531093;0.450798;1.248840;0.775915;0.061473;-1.236923;-0.831055;0.343994;0.245361;0.089769;-0.469459;0.333728;-0.812511
29041;6.646843;0.638390;1.265140;0.907604;0.021344;-1.512229;-0.831299;0.323730;0.246582;0.082964;-0.472708;0.321851;-0.816135
29042;6.922919;0.692241;1.205360;0.813088;-0.008493;-1.781260;-0.834717;0.293945;0.237061;0.074105;-0.476875;0.309402;-0.819371
29043;7.239805;0.527357;1.335630;0.619942;-0.044313;-2.034381;-0.837402;0.270264;0.249023;0.062821;-0.481928;0.297137;-0.821893
29044;7.523856;0.059778;1.543587;0.453217;-0.120963;-2.261141;-0.850098;0.242920;0.240479;0.049486;-0.487998;0.284960;-0.823533
29045;7.704464;-0.418265;1.749915;0.431638;-0.258001;-2.478090;-0.846436;0.217773;0.249268;0.034886;-0.495341;0.271856;-0.824327
29046;8.008974;-0.688500;1.966631;0.475653;-0.455693;-2.670348;-0.854492;0.179199;0.263916;0.019580;-0.504229;0.257469;-0.824063
29047;8.642389;-0.908036;2.294282;0.537174;-0.727847;-2.837848;-0.839355;0.140869;0.260010;0.003956;-0.515055;0.241753;-0.822349
29048;9.470966;-1.191875;2.917344;0.637548;-1.077351;-3.018236;-0.859863;0.104736;0.272217;-0.011768;-0.528289;0.224388;-0.818793
29049;10.532319;-1.241721;3.613464;0.735902;-1.499231;-3.215654;-0.846436;0.066406;0.283936;-0.027605;-0.544347;0.205331;-0.812874
29050;12.501647;-1.291834;4.395103;0.783013;-1.898114;-3.404269;-0.831299;0.026123;0.315674;-0.043795;-0.562895;0.184980;-0.804371
29051;14.966749;-1.454883;5.099277;0.791001;-2.050146;-3.592110;-0.825928;-0.022217;0.343506;-0.060921;-0.582103;0.163528;-0.794168
29052;16.499183;-1.906837;5.295946;0.804761;-1.817612;-3.777218;-0.811279;-0.065430;0.362549;-0.079447;-0.599305;0.140758;-0.784034
29053;16.787438;-2.377431;4.831033;0.748592;-1.300023;-3.877530;-0.786865;-0.108154;0.393311;-0.099419;-0.612469;0.117334;-0.775391
29054;16.707187;-2.935687;4.261043;0.566830;-0.823084;-3.748831;-0.774658;-0.139893;0.405273;-0.119844;-0.621589;0.095216;-0.768244
29055;17.049313;-3.205221;4.266541;0.350570;-0.564480;-3.469214;-0.757080;-0.184082;0.409180;-0.139694;-0.628022;0.075590;-0.761814
29056;16.420372;-3.642806;4.605244;0.136948;-0.569475;-3.126920;-0.739746;-0.224609;0.421387;-0.158380;-0.633531;0.059070;-0.755026
29057;15.122725;-3.981141;4.707501;-0.011904;-0.691328;-2.752958;-0.724365;-0.257812;0.425537;-0.175342;-0.639029;0.045600;-0.747541
29058;13.303654;-4.137443;4.247743;-0.211147;-0.741480;-2.410870;-0.703125;-0.274170;0.431641;-0.191131;-0.644100;0.035262;-0.739838
29059;11.932944;-4.280133;3.681964;-0.514106;-0.600971;-2.017885;-0.689453;-0.299561;0.427246;-0.206093;-0.647462;0.028683;-0.733141
29060;11.052397;-4.691266;3.296685;-0.716147;-0.371418;-1.556818;-0.675537;-0.312988;0.431641;-0.219330;-0.648794;0.025445;-0.728226
29061;10.567637;-5.306570;3.288219;-0.607744;-0.174528;-1.023468;-0.670898;-0.334961;0.428955;-0.228754;-0.648917;0.024090;-0.725257
29062;10.644231;-5.612520;3.316389;-0.115128;0.042754;-0.568953;-0.669189;-0.338867;0.427734;-0.232799;-0.648538;0.021825;-0.724381
29063;10.894110;-5.427242;3.177136;0.568521;0.282851;-0.293332;-0.661133;-0.339111;0.431396;-0.231524;-0.647970;0.016480;-0.725437
29064;11.375695;-5.277856;3.019749;1.316491;0.453899;-0.125767;-0.664551;-0.350586;0.439453;-0.225205;-0.647737;0.007212;-0.727782
29065;11.843043;-4.887688;3.069554;1.988476;0.536122;-0.035441;-0.661865;-0.331299;0.443359;-0.214672;-0.648126;-0.005774;-0.730627
29066;11.661151;-4.108640;2.813399;2.337762;0.580191;0.027383;-0.668213;-0.310059;0.457031;-0.201797;-0.648653;-0.020598;-0.733555
29067;10.944879;-3.312280;2.394071;2.140086;0.615476;0.177120;-0.667969;-0.315186;0.467773;-0.188998;-0.648419;-0.033434;-0.736692
29068;9.992456;-2.718940;1.979668;1.455093;0.723034;0.417068;-0.681885;-0.273926;0.474365;-0.178350;-0.646339;-0.040908;-0.740786
29069;8.884875;-2.537022;1.650478;0.538938;0.815342;0.774154;-0.686035;-0.285156;0.468262;-0.170379;-0.642353;-0.040917;-0.746110
29070;8.241639;-2.775888;1.435380;-0.251789;0.816899;1.220593;-0.694092;-0.264160;0.454590;-0.163847;-0.637299;-0.033601;-0.752247
29071;7.962928;-2.989097;1.362249;-0.728982;0.771268;1.637836;-0.711670;-0.258545;0.443604;-0.157218;-0.631856;-0.020993;-0.758683
29072;7.778588;-3.092234;1.339934;-0.923946;0.686114;1.966602;-0.733643;-0.238525;0.427002;-0.149509;-0.626548;-0.005288;-0.764890
29073;7.802493;-3.131102;1.374758;-0.904814;0.544533;2.227407;-0.740723;-0.220459;0.419434;-0.139990;-0.621919;0.011849;-0.770376
29074;8.042251;-3.092813;1.606316;-0.736720;0.415072;2.406376;-0.753418;-0.194092;0.406738;-0.128383;-0.618014;0.028993;-0.775071
29075;8.449565;-2.920328;1.872383;-0.492885;0.370219;2.521743;-0.766602;-0.163818;0.407471;-0.114710;-0.614332;0.045204;-0.779355
29076;8.821657;-2.501481;1.894489;-0.303945;0.410078;2.597762;-0.784912;-0.132324;0.410156;-0.099540;-0.610233;0.060526;-0.783610
29077;9.219377;-2.173082;1.967176;-0.221321;0.464523;2.672798;-0.787109;-0.107910;0.397461;-0.083442;-0.605485;0.075622;-0.787849
29078;9.689083;-1.850583;2.054753;-0.222029;0.512088;2.719927;-0.802246;-0.078613;0.389160;-0.067029;-0.600059;0.090891;-0.791944
29079;10.142794;-1.366599;2.104861;-0.332839;0.545653;2.727185;-0.803711;-0.047119;0.381836;-0.051116;-0.594002;0.106861;-0.795695
29080;10.659934;-0.988761;2.240806;-0.598488;0.554186;2.683023;-0.822021;-0.019043;0.376465;-0.036794;-0.587471;0.124307;-0.798794
29081;11.245238;-0.827575;2.402881;-0.929005;0.577860;2.597863;-0.818359;0.012451;0.370605;-0.024663;-0.580429;0.143455;-0.801196
29082;11.633724;-0.841682;2.379887;-1.258698;0.663243;2.503748;-0.832031;0.042480;0.361328;-0.014846;-0.572518;0.164240;-0.803137
29083;12.187601;-0.824213;2.273933;-1.540678;0.773039;2.439794;-0.831055;0.062256;0.351074;-0.006946;-0.563565;0.186483;-0.804717
29084;12.640449;-0.800109;2.219298;-1.746559;0.864527;2.373233;-0.835938;0.083740;0.339600;-0.000598;-0.553717;0.209655;-0.805880
29085;12.938780;-0.844169;2.266781;-1.827590;0.856039;2.284001;-0.845459;0.112793;0.335205;0.004790;-0.543707;0.232806;-0.806325
29086;12.908682;-0.921532;2.215432;-1.727541;0.815663;2.144659;-0.843506;0.125488;0.319336;0.009771;-0.533893;0.254492;-0.806286
29087;12.430389;-0.719953;2.006809;-1.470410;0.748850;1.966463;-0.846191;0.150146;0.305176;0.014834;-0.524600;0.273502;-0.806084
29088;13.001238;0.029932;1.932640;-1.155506;0.676313;1.835541;-0.849854;0.168701;0.306641;0.020555;-0.515833;0.289684;-0.805963
29089;13.562255;0.850889;1.883965;-0.839791;0.714951;1.572135;-0.842529;0.181641;0.298584;0.025764;-0.507226;0.302511;-0.806564
29090;13.612800;1.056135;1.644601;-0.503770;0.799850;1.109288;-0.846436;0.192139;0.287109;0.029066;-0.499042;0.311055;-0.808305
29091;11.546406;0.244734;1.479279;-0.052029;0.722339;0.399407;-0.841553;0.205811;0.274170;0.029665;-0.493067;0.313532;-0.810989
29092;6.988479;-0.625149;1.440840;0.562774;0.046224;-0.253994;-0.847168;0.203125;0.285645;0.030142;-0.493205;0.308973;-0.812635
29093;4.682212;-0.673005;1.591568;1.080231;-1.040597;-0.474969;-0.845947;0.186768;0.296387;0.034047;-0.501099;0.299692;-0.811126
29094;6.226984;0.361402;2.305553;1.235646;-1.887850;-0.420125;-0.838379;0.188721;0.303467;0.041085;-0.514407;0.289263;-0.806241
29095;8.370604;1.581042;3.069618;1.025410;-2.144410;-0.285364;-0.828125;0.198486;0.331055;0.048738;-0.528996;0.280615;-0.799402
29096;11.060580;2.181629;3.976762;0.616510;-1.829975;-0.181218;-0.829102;0.201172;0.350098;0.054539;-0.541243;0.275168;-0.792694
29097;13.589543;2.430577;4.587778;0.245681;-0.943959;-0.270800;-0.824219;0.190430;0.368652;0.056045;-0.547930;0.272097;-0.789047
29098;14.010410;2.705072;4.048958;-0.023322;0.233666;-0.487852;-0.825195;0.188721;0.365479;0.052229;-0.547475;0.270313;-0.790237
29099;13.040847;2.680074;2.967295;-0.284750;1.061382;-0.770817;-0.831055;0.163818;0.354248;0.043495;-0.542290;0.269269;-0.794685
29100;11.367141;1.851023;2.273306;-0.370508;1.391826;-1.065498;-0.831055;0.161133;0.333496;0.031678;-0.535522;0.267508;-0.800407
29101;9.333168;1.289739;1.721988;-0.241089;1.186548;-1.403615;-0.846680;0.139404;0.323730;0.018639;-0.530726;0.263240;-0.805411
29102;7.662402;0.728073;1.514735;-0.095080;0.529228;-1.772657;-0.845459;0.116943;0.322021;0.005209;-0.531007;0.256179;-0.807698
29103;7.178055;0.119947;1.957083;0.080698;-0.245733;-2.059390;-0.839600;0.088135;0.322998;-0.007718;-0.536970;0.246555;-0.806731
29104;7.794654;-0.576015;2.522888;0.371265;-0.723711;-2.235709;-0.844238;0.066650;0.325684;-0.019545;-0.546343;0.234125;-0.803936
29105;8.313154;-0.833637;2.826608;0.654173;-0.875606;-2.406575;-0.839844;0.027344;0.341064;-0.030922;-0.556874;0.218937;-0.800626
29106;8.547486;-0.975348;3.034469;0.754185;-0.823216;-2.556471;-0.835205;0.006348;0.342285;-0.042915;-0.567072;0.202255;-0.797296
29107;8.743106;-1.158993;3.054524;0.681766;-0.644736;-2.600632;-0.821045;-0.021729;0.364746;-0.055821;-0.575827;0.185668;-0.794251
29108;8.901833;-1.317793;2.953859;0.495581;-0.407296;-2.571245;-0.818604;-0.051758;0.359375;-0.069765;-0.582589;0.170250;-0.791668
29109;8.965639;-1.471326;2.663574;0.201992;-0.191213;-2.467512;-0.806885;-0.086426;0.378418;-0.084726;-0.587338;0.157062;-0.789422
29110;9.071264;-1.609954;2.376051;-0.128322;-0.037963;-2.341805;-0.804932;-0.114014;0.371338;-0.100643;-0.590446;0.146493;-0.787264
29111;9.195561;-1.727846;2.130889;-0.447927;0.042051;-2.254577;-0.802490;-0.148926;0.365723;-0.117623;-0.592430;0.138328;-0.784893
29112;9.350162;-1.855320;1.926818;-0.731507;-0.008498;-2.244175;-0.792236;-0.165283;0.370117;-0.135833;-0.594231;0.132070;-0.781663
29113;9.563161;-2.209947;1.918330;-0.939976;-0.142871;-2.274579;-0.780029;-0.205322;0.368408;-0.155071;-0.596465;0.127126;-0.777188
29114;9.719588;-2.682634;2.025121;-1.016884;-0.321347;-2.313616;-0.766357;-0.230957;0.366455;-0.174691;-0.599536;0.122667;-0.771358
29115;9.873900;-3.250948;2.259831;-0.958717;-0.508491;-2.338140;-0.750244;-0.271973;0.361328;-0.193909;-0.603646;0.117938;-0.764265
29116;10.101873;-3.774734;2.616324;-0.816247;-0.659924;-2.327107;-0.726074;-0.296143;0.372314;-0.212106;-0.608665;0.112559;-0.756220
29117;10.583066;-4.272726;3.026483;-0.575998;-0.766412;-2.277755;-0.712891;-0.319336;0.374023;-0.228583;-0.614467;0.106068;-0.747616
29118;11.342575;-4.852536;3.505272;-0.260079;-0.868842;-2.184374;-0.692871;-0.347656;0.381348;-0.242679;-0.621179;0.098255;-0.738640
29119;12.245644;-5.407118;3.952546;0.146948;-0.982765;-2.053834;-0.678955;-0.369873;0.388184;-0.253683;-0.629078;0.088822;-0.729395
29120;13.266862;-5.699223;4.421423;0.551791;-1.029849;-1.903040;-0.652832;-0.385742;0.401611;-0.261524;-0.637788;0.077805;-0.720262
29121;13.809629;-5.859046;4.448970;0.823710;-0.903097;-1.674752;-0.633057;-0.393555;0.428223;-0.266548;-0.645980;0.066089;-0.712245
29122;14.417396;-5.632288;4.239491;0.844383;-0.651503;-1.297621;-0.620361;-0.406006;0.437256;-0.269296;-0.652362;0.055726;-0.706256
29123;14.441900;-5.681118;4.418201;0.620634;-0.429857;-0.860740;-0.620605;-0.406494;0.444092;-0.270753;-0.656646;0.048572;-0.702246
29124;13.722162;-5.901631;4.535928;0.372972;-0.284939;-0.341701;-0.611816;-0.411377;0.448975;-0.270571;-0.659278;0.045400;-0.700059
29125;12.731084;-5.853954;4.478707;0.123526;-0.185729;0.214970;-0.609131;-0.410156;0.456055;-0.268545;-0.660549;0.046540;-0.699566
29126;11.472617;-5.712096;4.133453;-0.086600;-0.080291;0.822023;-0.616211;-0.399658;0.451660;-0.264170;-0.660481;0.052029;-0.700908
29127;10.595531;-5.369456;3.848550;-0.221842;0.077317;1.405647;-0.628662;-0.390381;0.452148;-0.257173;-0.658875;0.061188;-0.704274
29128;10.304495;-4.993280;3.534484;-0.205547;0.343084;1.924835;-0.646484;-0.376221;0.441406;-0.247123;-0.655338;0.072537;-0.710071
29129;10.453060;-4.441750;3.091217;-0.012993;0.745257;2.368611;-0.669189;-0.348633;0.442139;-0.233555;-0.649311;0.084331;-0.718843
29130;10.752642;-3.885292;2.546536;0.284046;1.142733;2.720019;-0.700684;-0.321289;0.423828;-0.216437;-0.640887;0.095443;-0.730280
29131;11.366932;-3.283810;2.085504;0.655409;1.447652;2.951851;-0.722656;-0.291504;0.419434;-0.196024;-0.630634;0.104929;-0.743549
29132;12.541276;-2.607501;1.933791;1.038192;1.594779;3.057061;-0.747559;-0.239014;0.403320;-0.172920;-0.619460;0.112278;-0.757470
29133;14.057033;-1.820693;2.009466;1.315912;1.562138;3.008043;-0.772217;-0.203613;0.396484;-0.148512;-0.608361;0.117574;-0.770725
29134;15.044794;-1.237426;2.155878;1.425461;1.443671;2.813677;-0.800293;-0.170410;0.377197;-0.124560;-0.597803;0.121228;-0.782573
29135;14.937678;-0.925890;1.960963;1.356445;1.288332;2.510011;-0.826172;-0.133057;0.372070;-0.102688;-0.588027;0.123889;-0.792673
29136;13.928107;-0.749863;1.497960;1.058552;1.126778;2.246441;-0.827881;-0.098877;0.357422;-0.083795;-0.578975;0.127290;-0.800977
29137;12.790598;-0.808295;1.184804;0.540056;1.003812;2.156918;-0.833252;-0.072510;0.353271;-0.067837;-0.570199;0.133745;-0.807703
29138;11.742848;-1.141735;0.955182;-0.005811;0.887545;2.243793;-0.839600;-0.041504;0.342041;-0.053735;-0.561557;0.144296;-0.812985
29139;11.122024;-1.541521;1.007309;-0.412289;0.711815;2.458889;-0.852783;-0.021973;0.328613;-0.039847;-0.553410;0.158618;-0.816694
29140;10.797740;-1.716582;1.131127;-0.631837;0.562175;2.720752;-0.862061;0.017578;0.310303;-0.024974;-0.545566;0.175604;-0.819083
29141;10.527702;-1.547743;1.154430;-0.721938;0.464197;2.904501;-0.857910;0.056885;0.305664;-0.009101;-0.537762;0.193951;-0.820434
29142;10.104556;-1.260658;1.106938;-0.767925;0.406216;2.972590;-0.868408;0.094971;0.293701;0.007128;-0.529877;0.212787;-0.820915
29143;9.508470;-1.196291;1.050181;-0.777130;0.343371;2.966463;-0.867676;0.123779;0.291260;0.023380;-0.522068;0.231504;-0.820551
29144;8.937721;-1.230394;1.150380;-0.675494;0.274267;2.915652;-0.867920;0.164551;0.289551;0.039845;-0.514463;0.249131;-0.819557
29145;8.382606;-1.134224;1.213684;-0.467561;0.211496;2.831292;-0.870850;0.202637;0.289795;0.056284;-0.506939;0.265066;-0.818281
29146;7.942664;-0.796141;1.219062;-0.274346;0.126811;2.714121;-0.865967;0.219238;0.282959;0.072915;-0.499865;0.278973;-0.816696
29147;7.522934;-0.404273;1.269789;-0.171559;0.047914;2.542729;-0.856201;0.254883;0.281494;0.088827;-0.493357;0.291343;-0.814757
29148;7.330747;-0.024850;1.400230;-0.180632;-0.016458;2.314685;-0.859131;0.299072;0.286865;0.103346;-0.487645;0.302606;-0.812374
29149;7.363654;0.231711;1.571765;-0.287541;-0.018051;2.031805;-0.848877;0.325684;0.281006;0.115580;-0.482603;0.313265;-0.809692
29150;7.453332;0.273613;1.688873;-0.420250;0.072276;1.743790;-0.840088;0.333984;0.291992;0.125106;-0.477706;0.323629;-0.807100
29151;7.773950;0.306097;1.691623;-0.511332;0.219605;1.478129;-0.829834;0.359863;0.287842;0.132061;-0.472523;0.333620;-0.804972
29152;8.204332;0.480983;1.676771;-0.557339;0.380489;1.226626;-0.825439;0.373535;0.279541;0.136750;-0.466959;0.342995;-0.803495
29153;8.824813;0.722390;1.670526;-0.560684;0.498259;0.960741;-0.828369;0.381592;0.284180;0.139310;-0.461316;0.351420;-0.802673
29154;9.528777;0.830301;1.603243;-0.500817;0.588740;0.644223;-0.828369;0.385742;0.271240;0.139716;-0.455889;0.358276;-0.802672
29155;9.634584;1.030312;1.369142;-0.374972;0.657079;0.280325;-0.828369;0.387939;0.263672;0.137955;-0.450920;0.362945;-0.803685
29156;9.945827;1.438297;1.135463;-0.260932;0.666398;-0.102139;-0.828857;0.396240;0.256836;0.134040;-0.446908;0.365382;-0.805483
29157;10.991857;1.874452;1.007662;-0.221128;0.623183;-0.557967;-0.833496;0.392578;0.258301;0.127380;-0.444534;0.365746;-0.807709
29158;12.196461;1.935133;1.271668;-0.196724;0.511400;-1.104511;-0.842529;0.367920;0.249023;0.117490;-0.444540;0.363742;-0.810107
29159;12.788505;1.240981;1.601507;0.007849;0.312914;-1.788907;-0.857178;0.342529;0.246582;0.104283;-0.447682;0.357567;-0.812928
29160;11.437051;-0.149343;1.928673;0.467878;-0.135496;-2.568755;-0.858154;0.316406;0.241699;0.088787;-0.455635;0.344847;-0.815840
29161;9.241028;-1.611050;2.436871;1.135270;-0.985396;-3.257041;-0.871582;0.279541;0.246826;0.073563;-0.470568;0.324087;-0.817387
29162;8.159572;-2.417796;3.019524;1.803695;-2.089538;-3.674800;-0.871826;0.238281;0.276123;0.061010;-0.493201;0.296082;-0.815700
29163;9.073819;-2.386446;3.847406;2.230291;-3.002335;-3.794327;-0.869873;0.182129;0.315674;0.051584;-0.521296;0.263702;-0.809970
29164;10.902837;-2.080630;4.466190;2.356208;-3.332447;-3.584592;-0.868652;0.144775;0.353027;0.044696;-0.550061;0.230751;-0.801367
29165;12.865797;-1.636289;5.173692;2.180541;-2.917409;-3.124190;-0.851562;0.118652;0.393555;0.039187;-0.574253;0.200830;-0.792695
29166;14.638567;-1.181186;5.309266;1.835550;-1.836330;-2.630771;-0.851318;0.093262;0.416016;0.033470;-0.589889;0.175614;-0.787445
29167;15.514897;-0.649261;4.833689;1.285569;-0.535225;-2.317394;-0.843262;0.071533;0.420166;0.025167;-0.596265;0.155783;-0.787125
29168;15.269241;-0.263062;4.142178;0.534306;0.474974;-2.191179;-0.852051;0.034912;0.414551;0.012654;-0.595760;0.141626;-0.790476
29169;14.160170;-0.704721;3.508845;-0.173347;0.988412;-2.167506;-0.847412;0.006104;0.405273;-0.003882;-0.591688;0.132277;-0.795231
29170;12.338276;-0.936169;2.845530;-0.730661;0.946218;-2.168029;-0.847900;-0.017578;0.394775;-0.023095;-0.587642;0.126538;-0.798831
29171;10.791582;-1.039924;2.305855;-1.325591;0.521451;-2.184118;-0.841309;-0.059082;0.381592;-0.044800;-0.586070;0.124652;-0.799360
29172;9.785277;-1.398474;1.980848;-1.846680;-0.006420;-2.152563;-0.840088;-0.082275;0.376465;-0.068080;-0.587507;0.126389;-0.796384
29173;9.464843;-1.965269;2.004880;-2.116028;-0.391537;-2.086831;-0.842773;-0.130371;0.371338;-0.091798;-0.590926;0.130382;-0.790810
29174;9.575885;-2.392583;2.241035;-2.086659;-0.509159;-2.029107;-0.813232;-0.155273;0.375244;-0.114948;-0.594691;0.134578;-0.784231
29175;9.615248;-2.694449;2.386532;-1.842545;-0.424342;-2.019070;-0.814209;-0.194580;0.370850;-0.136710;-0.597805;0.136975;-0.777932
29176;9.641897;-2.877880;2.458121;-1.498663;-0.231159;-2.051435;-0.795166;-0.225342;0.365479;-0.157133;-0.599795;0.136706;-0.772572
29177;9.650343;-2.846198;2.357381;-1.166468;0.007080;-2.084416;-0.785400;-0.248535;0.361816;-0.176314;-0.600467;0.133773;-0.768412
29178;9.523235;-2.834237;2.101550;-0.899003;0.227329;-2.105217;-0.775879;-0.283447;0.347168;-0.194469;-0.599914;0.128659;-0.765331
29179;9.364568;-2.740350;1.781797;-0.739771;0.343399;-2.103430;-0.762451;-0.305420;0.336914;-0.211875;-0.598658;0.122313;-0.762730
29180;9.271071;-2.581058;1.525792;-0.748943;0.343603;-2.097303;-0.746338;-0.335693;0.333252;-0.229214;-0.597166;0.116023;-0.759863
29181;9.108359;-2.574385;1.383528;-0.909596;0.214067;-2.082875;-0.738770;-0.363281;0.321533;-0.247056;-0.595960;0.111039;-0.755953
29182;9.022951;-2.791768;1.360796;-1.147701;-0.010486;-2.044479;-0.715820;-0.392334;0.313721;-0.265541;-0.595422;0.108178;-0.750506
29183;8.936217;-3.232026;1.466020;-1.357881;-0.235383;-1.970902;-0.699219;-0.408936;0.295898;-0.284304;-0.595525;0.107465;-0.743621
29184;8.708999;-3.886813;1.721116;-1.457476;-0.438742;-1.845307;-0.686768;-0.443115;0.293213;-0.302490;-0.596303;0.108445;-0.735637
29185;8.472833;-4.600769;2.039813;-1.371759;-0.630267;-1.668371;-0.672119;-0.459961;0.296631;-0.318881;-0.598089;0.110236;-0.726947
29186;8.447407;-5.235020;2.475684;-1.100672;-0.806386;-1.437626;-0.660156;-0.470947;0.293701;-0.332263;-0.601265;0.111984;-0.718012
29187;8.851061;-5.692558;2.930951;-0.684045;-0.929599;-1.157298;-0.641846;-0.489746;0.286865;-0.341690;-0.605933;0.112975;-0.709457
29188;9.611439;-5.961286;3.401591;-0.161858;-0.997428;-0.847971;-0.633545;-0.494141;0.301514;-0.346536;-0.612107;0.112632;-0.701820
29189;10.719838;-6.036531;3.854435;0.391203;-1.029542;-0.552935;-0.625000;-0.492676;0.315918;-0.346765;-0.619721;0.110657;-0.695309
29190;11.634757;-5.902022;4.257371;0.882905;-0.993458;-0.293352;-0.612549;-0.503174;0.332031;-0.342943;-0.628235;0.107073;-0.690106
29191;12.101485;-5.685926;4.374744;1.254426;-0.837659;-0.044403;-0.618408;-0.504150;0.349609;-0.335832;-0.636604;0.102212;-0.686662
29192;11.961388;-5.210382;4.128726;1.428609;-0.557488;0.255000;-0.620850;-0.496582;0.361328;-0.326266;-0.643499;0.097158;-0.685580
29193;13.003841;-4.520455;3.996471;1.319926;-0.297939;0.671557;-0.616699;-0.480957;0.381592;-0.315058;-0.648172;0.094253;-0.686824
29194;14.167775;-4.547729;4.685705;1.178180;-0.190471;0.998083;-0.637695;-0.469971;0.396729;-0.302780;-0.651494;0.093641;-0.689283
29195;14.707430;-4.721916;5.194715;1.253913;-0.176476;1.231511;-0.648193;-0.446045;0.399170;-0.288700;-0.654616;0.093822;-0.692335
29196;14.498645;-4.678613;5.022896;1.426469;0.025654;1.402956;-0.663818;-0.431152;0.406982;-0.272776;-0.656686;0.093448;-0.696867
29197;12.932016;-4.429362;4.168311;1.516968;0.347317;1.626017;-0.673828;-0.410645;0.431641;-0.255225;-0.656708;0.093023;-0.703521
29198;11.686975;-4.041427;3.390498;1.462287;0.754884;1.990912;-0.696045;-0.375488;0.419434;-0.236048;-0.653667;0.094023;-0.712854
29199;11.012763;-3.654475;2.716936;1.393074;1.146463;2.429586;-0.723877;-0.350342;0.430664;-0.214822;-0.647452;0.097013;-0.724738
29200;10.994872;-3.231057;2.245487;1.393957;1.446451;2.847468;-0.751709;-0.306152;0.415039;-0.191157;-0.638601;0.101654;-0.738454
29201;11.662216;-2.768898;1.946963;1.524889;1.636011;3.189042;-0.777344;-0.268311;0.400146;-0.164679;-0.627886;0.106917;-0.753133
29202;12.978674;-2.326176;1.886294;1.765847;1.761861;3.383614;-0.812744;-0.211914;0.391602;-0.135652;-0.615809;0.111398;-0.768094
29203;14.382549;-1.779933;1.924720;2.077064;1.831273;3.416421;-0.838623;-0.159424;0.377441;-0.104973;-0.602773;0.114022;-0.782716
29204;15.878384;-1.300078;1.992888;2.385105;1.846046;3.310059;-0.850830;-0.112793;0.351074;-0.073405;-0.589165;0.113979;-0.796558
29205;16.771369;-1.011017;1.895553;2.656795;1.861645;3.031654;-0.878174;-0.055176;0.343750;-0.042465;-0.575042;0.110708;-0.809486
29206;16.341695;-0.893233;1.512483;2.824934;1.844860;2.641174;-0.885498;-0.009277;0.313721;-0.013269;-0.560696;0.104249;-0.821326
29207;15.040928;-0.835034;1.094394;2.827519;1.755693;2.282997;-0.896484;0.034424;0.290283;0.013499;-0.546595;0.096000;-0.831766
29208;13.548989;-0.702661;0.783225;2.588126;1.627624;2.075738;-0.905518;0.069336;0.266113;0.037810;-0.533015;0.088328;-0.840633
29209;12.593475;-0.513192;0.592807;2.152520;1.523950;2.041008;-0.902588;0.097412;0.254883;0.059940;-0.519870;0.083439;-0.848045
29210;11.967682;-0.369387;0.545728;1.595312;1.485151;2.107578;-0.912109;0.135986;0.241211;0.080066;-0.506864;0.082695;-0.854307
29211;11.546475;-0.219134;0.586064;0.989510;1.476285;2.215567;-0.911133;0.162354;0.199219;0.098986;-0.493992;0.086286;-0.859493
29212;11.188690;0.027313;0.559740;0.391757;1.467006;2.267054;-0.906494;0.202881;0.185547;0.115167;-0.481322;0.094620;-0.863778
29213;10.645144;0.141465;0.541567;-0.184047;1.430570;2.246324;-0.900879;0.226562;0.164062;0.128960;-0.469233;0.106852;-0.867048
29214;9.988220;-0.052712;0.451658;-0.656413;1.346788;2.202388;-0.906494;0.256104;0.140137;0.140605;-0.458046;0.122151;-0.869197
29215;9.320350;-0.244701;0.375725;-0.952558;1.228726;2.148842;-0.898193;0.293701;0.132324;0.150804;-0.447875;0.139155;-0.870231
29216;8.620259;-0.392205;0.296031;-1.110435;1.097727;2.074131;-0.883789;0.330322;0.124512;0.160035;-0.438716;0.156733;-0.870259
29217;8.029839;-0.435047;0.212815;-1.178091;0.955498;1.981632;-0.882080;0.345947;0.117432;0.168544;-0.430600;0.174146;-0.869396
29218;7.480813;-0.423323;0.156807;-1.189852;0.822852;1.869418;-0.871094;0.375977;0.110352;0.176292;-0.423429;0.190982;-0.867845
29219;6.980967;-0.417705;0.075406;-1.148068;0.663516;1.739246;-0.865723;0.393311;0.104980;0.183482;-0.417400;0.206718;-0.865667
29220;6.639844;-0.469262;0.052769;-1.048634;0.504346;1.581049;-0.851318;0.418457;0.112061;0.190089;-0.412502;0.220871;-0.863090
29221;6.427564;-0.513152;0.048276;-0.863233;0.363466;1.400280;-0.844482;0.436035;0.106934;0.196535;-0.408622;0.232656;-0.860391
29222;6.393580;-0.509949;0.048898;-0.621143;0.258164;1.206943;-0.838379;0.455078;0.103760;0.202344;-0.405346;0.241937;-0.858031
29223;6.589615;-0.341743;0.049593;-0.352275;0.173514;0.984932;-0.829102;0.463623;0.094482;0.207631;-0.402627;0.248364;-0.856210
29224;6.860560;-0.171170;0.040786;-0.085243;0.128892;0.726630;-0.825195;0.478516;0.097168;0.212044;-0.400274;0.251919;-0.855193
29225;7.023851;0.014921;0.084819;0.141369;0.061640;0.408892;-0.817627;0.478027;0.097656;0.215093;-0.398662;0.252661;-0.854966
29226;7.130493;-0.088228;0.176326;0.346062;-0.100629;0.033898;-0.823730;0.476562;0.099609;0.216479;-0.398627;0.250400;-0.855297
29227;7.499703;-0.416894;0.419076;0.589190;-0.379875;-0.353053;-0.825195;0.478271;0.103271;0.216462;-0.400942;0.244617;-0.855893
29228;8.078422;-1.027117;1.046407;0.977493;-0.765221;-0.726874;-0.833740;0.470215;0.108398;0.215844;-0.406041;0.234091;-0.856588
29229;8.800856;-1.678465;1.717635;1.594069;-1.287948;-1.092738;-0.834229;0.458252;0.107910;0.215638;-0.414382;0.216934;-0.857163
29230;10.121825;-2.380939;2.636555;2.337635;-1.935212;-1.423736;-0.840820;0.439453;0.115479;0.216678;-0.426389;0.192039;-0.856950
29231;10.292391;-3.331798;3.398014;3.194233;-2.507861;-1.810169;-0.854248;0.415283;0.137451;0.218661;-0.441123;0.158432;-0.855860
29232;9.868350;-4.037990;3.848241;3.996188;-3.054575;-2.017521;-0.869873;0.383545;0.147949;0.222416;-0.457845;0.117118;-0.852756
29233;10.379439;-4.110211;4.383181;4.603390;-3.542685;-1.890254;-0.877441;0.375000;0.187744;0.229280;-0.475766;0.070860;-0.846201
29234;11.147076;-3.689525;5.301137;4.939707;-3.965845;-1.467104;-0.870117;0.359375;0.210449;0.240570;-0.494520;0.022664;-0.834903
29235;12.981283;-2.258663;6.210163;4.858791;-4.010858;-0.834983;-0.864990;0.353027;0.247803;0.255246;-0.512215;-0.022522;-0.819743
29236;13.983143;-0.837193;6.876200;4.276264;-3.386319;-0.335693;-0.862305;0.362549;0.266602;0.270347;-0.525733;-0.060226;-0.804295
29237;13.416506;-0.304427;6.924873;3.458498;-2.407908;-0.056344;-0.855957;0.368164;0.297119;0.283788;-0.533810;-0.088934;-0.791582
29238;12.490516;-0.053406;6.556707;2.674652;-1.526339;0.093810;-0.843750;0.378418;0.290527;0.295122;-0.537534;-0.109643;-0.782265
29239;11.312126;-0.047730;6.020854;2.019460;-0.914635;0.147399;-0.848389;0.382324;0.287842;0.304284;-0.538662;-0.124286;-0.775762
29240;10.289051;-0.087061;5.449126;1.606671;-0.544452;0.185539;-0.843506;0.384766;0.294434;0.312143;-0.538336;-0.135119;-0.771041
29241;9.700373;0.007490;5.078911;1.270172;-0.287533;0.209021;-0.843018;0.405029;0.287109;0.318882;-0.537173;-0.142996;-0.767666
29242;9.238807;-0.078665;4.619460;1.048634;-0.102366;0.151548;-0.841064;0.406982;0.284668;0.324453;-0.535292;-0.149208;-0.765461
29243;8.992394;-0.218358;4.032250;0.885410;-0.126391;0.009565;-0.839355;0.416504;0.285400;0.328339;-0.533792;-0.155068;-0.763684
29244;8.809357;-0.695528;5.526558;0.467999;-0.014872;-0.032163;-0.839844;0.405029;0.278320;0.330236;-0.532652;-0.158148;-0.763030
29245;8.961918;0.994314;5.925721;-0.449567;0.338976;-0.193097;-0.848633;0.396240;0.278320;0.327497;-0.531563;-0.155130;-0.765586
29246;8.913122;-1.715541;4.677838;-2.149031;0.345726;-0.322420;-0.852295;0.384277;0.289795;0.316354;-0.534804;-0.141798;-0.770583
29247;6.893826;-4.992002;3.482062;-1.508438;-0.393135;-0.461338;-0.851807;0.393066;0.297852;0.306216;-0.540795;-0.135107;-0.771699
29248;7.638802;-4.445320;2.861589;0.059835;-1.116392;-0.893516;-0.850098;0.376221;0.318604;0.299501;-0.546860;-0.142262;-0.768768
29249;8.256632;-3.954164;3.214533;1.325154;-1.413168;-1.187110;-0.845459;0.363525;0.319092;0.296243;-0.551185;-0.159556;-0.763529
29250;7.725882;-5.674405;3.062712;3.036639;-1.664176;-1.287998;-0.861816;0.361084;0.326660;0.299678;-0.552390;-0.188708;-0.754618
29251;8.421629;-4.138116;3.195731;4.281407;-1.823257;-1.125144;-0.851318;0.351807;0.335205;0.309237;-0.551047;-0.225077;-0.741660
29252;8.879899;-4.466490;3.074185;5.059098;-1.875970;-1.015346;-0.843750;0.359863;0.330566;0.322380;-0.547222;-0.265456;-0.725364
29253;9.200638;-4.474953;3.374460;5.846899;-1.965505;-0.963004;-0.850342;0.372559;0.331543;0.338462;-0.540633;-0.309946;-0.705049
29254;9.795747;-4.420824;3.651692;6.519951;-2.034677;-1.012965;-0.840576;0.387207;0.337646;0.356091;-0.530806;-0.357861;-0.680720
29255;10.122843;-4.120397;3.905905;7.010637;-2.033458;-1.109418;-0.839844;0.392822;0.321533;0.374090;-0.517356;-0.407699;-0.652825
29256;10.411885;-3.557048;3.993810;7.164844;-1.860495;-1.130473;-0.833252;0.401855;0.304199;0.391801;-0.500439;-0.456355;-0.622731
29257;10.671438;-2.848073;4.174578;6.940254;-1.452134;-1.060934;-0.836426;0.414062;0.285889;0.409039;-0.480542;-0.500518;-0.592662
29258;10.949519;-2.389214;4.368904;6.442767;-0.814225;-0.904610;-0.839355;0.416504;0.257324;0.426389;-0.458277;-0.537787;-0.564765
29259;11.094784;-1.998705;4.292773;5.823276;-0.055532;-0.699594;-0.847412;0.418213;0.232910;0.444605;-0.434336;-0.567221;-0.540313
29260;11.092870;-1.611872;4.110949;5.086020;0.724450;-0.447358;-0.848633;0.426758;0.197754;0.464043;-0.409892;-0.588335;-0.520110
29261;10.900547;-1.270556;3.836109;4.254023;1.413261;-0.184610;-0.854248;0.424561;0.149414;0.484410;-0.386306;-0.601329;-0.504497
29262;10.722877;-0.870100;3.407578;3.331503;1.987629;0.076915;-0.854492;0.426514;0.105225;0.505199;-0.364869;-0.606550;-0.493701
29263;10.715285;-0.432730;2.720626;2.282321;2.453795;0.318875;-0.844971;0.441650;0.056641;0.525690;-0.346819;-0.604201;-0.488168
29264;10.652724;-0.356195;2.028596;1.183155;2.778084;0.550305;-0.840576;0.433838;0.016357;0.545199;-0.333177;-0.594853;-0.487750
29265;11.170090;-0.518106;1.424992;0.152407;2.946775;0.747959;-0.830078;0.443848;-0.030273;0.563129;-0.324292;-0.579613;-0.491700
29266;12.503008;-1.182493;1.140593;-0.691074;2.950233;0.888011;-0.817139;0.468506;-0.051025;0.578989;-0.319806;-0.560133;-0.498746
29267;13.626875;-2.658201;1.285286;-1.103549;2.784647;0.844153;-0.813232;0.472656;-0.073975;0.592394;-0.317570;-0.539469;-0.507141
29268;13.309707;-4.694775;1.263302;-0.848900;2.559526;0.692499;-0.788086;0.497803;-0.102295;0.604457;-0.314151;-0.521066;-0.514228
29269;11.887120;-6.344979;0.770253;-0.042070;2.297001;0.569939;-0.766357;0.490234;-0.131836;0.616684;-0.307115;-0.507523;-0.517495
29270;10.742016;-6.954622;-0.305085;0.923247;2.049015;0.667011;-0.758301;0.499756;-0.168701;0.630514;-0.296481;-0.498976;-0.515338
29271;10.281239;-6.636105;-1.188189;1.747903;1.767325;1.067691;-0.737549;0.503418;-0.200439;0.646653;-0.284260;-0.494245;-0.506713
29272;10.689831;-5.967599;-1.311258;2.191485;1.341759;1.630791;-0.721680;0.509521;-0.227051;0.664099;-0.273601;-0.492070;-0.491917
29273;12.006354;-5.209284;-0.805201;2.347551;0.932291;2.104211;-0.704590;0.516113;-0.255127;0.681705;-0.265507;-0.491386;-0.472572
29274;13.405782;-4.549120;-0.410584;2.256480;0.657403;2.213071;-0.686523;0.530762;-0.272705;0.697914;-0.259262;-0.491309;-0.452012
29275;14.490797;-4.468088;-0.169567;1.931744;0.603514;1.980866;-0.667236;0.532227;-0.296387;0.711884;-0.253991;-0.490516;-0.433709
29276;14.554119;-4.657146;-0.204286;1.498207;0.727165;1.699590;-0.640137;0.541016;-0.307129;0.724090;-0.249574;-0.487793;-0.418886
29277;14.312647;-4.723097;-0.470732;0.952952;0.932480;1.650934;-0.620605;0.547363;-0.330078;0.735571;-0.247446;-0.481863;-0.406833
29278;13.663293;-4.754783;-0.590931;0.345598;1.135230;1.802587;-0.594482;0.563232;-0.346436;0.746894;-0.248885;-0.472172;-0.396560
29279;12.863572;-4.649506;-0.713127;-0.283955;1.157003;2.072870;-0.574463;0.590576;-0.341553;0.757615;-0.255146;-0.459542;-0.386964
29280;12.087136;-4.377937;-0.752935;-0.921462;1.001215;2.398821;-0.546875;0.608887;-0.341064;0.767077;-0.267067;-0.444939;-0.377222
29281;11.703723;-4.342340;-0.694369;-1.510778;0.729070;2.677161;-0.516846;0.641602;-0.335449;0.774614;-0.284482;-0.429339;-0.367030
29282;11.356217;-4.341739;-0.521695;-1.901119;0.461411;2.863257;-0.483643;0.679932;-0.321777;0.780230;-0.305684;-0.413511;-0.356099
29283;11.210865;-4.406150;-0.407365;-2.032577;0.257510;2.965522;-0.454346;0.715820;-0.292725;0.784418;-0.328435;-0.398005;-0.344110
29284;11.014146;-4.482922;-0.358356;-1.939205;0.173838;3.015335;-0.421631;0.735596;-0.282959;0.788003;-0.350686;-0.382825;-0.330931
29285;10.887546;-4.554330;-0.069641;-1.629407;0.212530;3.021952;-0.386475;0.776123;-0.266113;0.791939;-0.370518;-0.367905;-0.316536
29286;10.576503;-4.443518;0.020138;-1.146828;0.305227;2.998750;-0.343506;0.794678;-0.248291;0.796958;-0.386566;-0.353437;-0.300845
29287;10.169528;-4.089710;0.041669;-0.628174;0.327834;2.969216;-0.306885;0.807617;-0.241455;0.803076;-0.398762;-0.339975;-0.283680
29288;9.745311;-3.535911;0.109474;-0.199318;0.257436;2.897577;-0.273438;0.828857;-0.245117;0.809737;-0.407806;-0.328027;-0.265363
29289;9.405152;-2.851313;0.186621;0.067173;0.110527;2.763937;-0.236328;0.833740;-0.253906;0.816137;-0.414783;-0.317930;-0.246567
29290;9.163098;-2.061796;0.295718;0.126395;-0.038057;2.549899;-0.209473;0.839111;-0.244385;0.821492;-0.420890;-0.309548;-0.228433
29291;8.710563;-1.361901;0.446095;-0.075800;-0.197310;2.287191;-0.173340;0.842773;-0.243652;0.824878;-0.427832;-0.302665;-0.211966
29292;8.364353;-1.170241;0.760144;-0.397294;-0.345028;2.045944;-0.155029;0.845215;-0.241699;0.826027;-0.436487;-0.296988;-0.197372
29293;8.188098;-1.436213;1.065859;-0.577885;-0.477731;1.838242;-0.135986;0.844482;-0.227783;0.825597;-0.445957;-0.292597;-0.184118
29294;8.129922;-1.707716;1.353029;-0.494807;-0.560752;1.668998;-0.113525;0.860352;-0.211182;0.824793;-0.454452;-0.289459;-0.171475
29295;8.098969;-1.555578;1.420597;-0.246991;-0.609584;1.501091;-0.088135;0.857666;-0.220703;0.824388;-0.460806;-0.287586;-0.159173
29296;7.682876;-1.280027;1.644233;0.052436;-0.692540;1.318961;-0.085205;0.858398;-0.217285;0.824545;-0.464693;-0.287329;-0.147064
29297;7.693531;-0.751131;1.796146;0.322877;-0.804441;1.104361;-0.070312;0.859131;-0.217773;0.825094;-0.466270;-0.288959;-0.135334
29298;7.936237;-0.006284;2.003824;0.469065;-0.852263;0.854643;-0.062988;0.854980;-0.228516;0.825706;-0.466229;-0.292014;-0.124773
29299;8.290927;0.634757;2.150205;0.484135;-0.818464;0.569451;-0.063477;0.852295;-0.238770;0.826077;-0.465301;-0.295928;-0.116265
29300;8.701192;1.095350;2.286743;0.489410;-0.814967;0.239396;-0.067627;0.849365;-0.241455;0.826096;-0.463477;-0.301078;-0.110030
29301;9.980591;1.683748;2.659129;0.543293;-0.934324;-0.130375;-0.068359;0.846680;-0.250000;0.825624;-0.460421;-0.308504;-0.105747
29302;11.277481;1.979326;2.885507;0.577730;-0.904679;-0.692532;-0.081299;0.848877;-0.250488;0.824788;-0.455604;-0.317882;-0.105356
29303;10.745918;1.553258;2.587148;0.652591;-0.805194;-1.447864;-0.100586;0.838379;-0.262451;0.823706;-0.448100;-0.329457;-0.110331
29304;10.321444;0.868946;2.485822;0.767350;-0.937832;-2.266756;-0.137451;0.829590;-0.267578;0.821663;-0.437524;-0.344995;-0.120089
29305;9.663329;-0.286778;2.979929;0.957142;-1.324766;-2.988130;-0.184814;0.819580;-0.279297;0.817968;-0.423679;-0.365785;-0.132761
29306;9.320153;-1.475498;3.647051;1.310237;-1.924250;-3.436019;-0.241699;0.806885;-0.291016;0.812390;-0.406297;-0.392267;-0.145166
29307;10.026285;-2.095379;4.247918;1.751961;-2.413211;-3.624952;-0.302490;0.779053;-0.300781;0.805384;-0.385340;-0.422696;-0.155558
29308;11.193859;-2.136799;4.590906;2.145652;-2.657739;-3.588513;-0.360596;0.756836;-0.316162;0.797536;-0.361560;-0.454474;-0.163288
29309;12.736480;-1.889722;4.959026;2.396869;-2.575304;-3.342559;-0.414062;0.718750;-0.327148;0.789771;-0.336322;-0.484546;-0.168414
29310;13.868190;-1.467234;5.294648;2.462359;-2.219077;-3.052474;-0.461426;0.682129;-0.335449;0.782842;-0.310808;-0.510817;-0.172115
29311;14.827601;-1.102933;5.204221;2.384443;-1.668320;-2.814043;-0.500000;0.644531;-0.349365;0.777408;-0.285628;-0.532115;-0.175806
29312;14.825567;-0.806993;4.981130;2.131534;-1.099501;-2.700553;-0.529541;0.607910;-0.365723;0.773273;-0.261461;-0.548545;-0.181065
29313;14.036883;-0.863809;4.845944;1.798512;-0.832592;-2.639668;-0.554688;0.578369;-0.357178;0.769090;-0.239096;-0.562166;-0.187891
29314;12.795969;-1.397896;4.774063;1.518121;-0.892181;-2.587335;-0.583008;0.541992;-0.370117;0.763606;-0.218695;-0.575221;-0.195446
29315;11.693526;-2.147963;4.779342;1.424993;-1.189432;-2.472614;-0.620850;0.509766;-0.371826;0.756207;-0.199772;-0.589422;-0.202048
29316;10.935311;-2.709521;4.951572;1.538961;-1.549311;-2.288464;-0.645264;0.466553;-0.362793;0.747034;-0.181507;-0.605375;-0.206196
29317;10.644635;-2.659129;5.448181;1.754519;-1.802623;-2.013327;-0.663574;0.436523;-0.364502;0.736859;-0.163596;-0.622430;-0.207016
29318;10.359464;-2.021768;5.377386;1.832090;-1.717127;-1.764327;-0.689209;0.403320;-0.355225;0.727164;-0.146240;-0.638326;-0.205880
29319;9.906076;-1.334866;5.080978;1.580072;-1.371656;-1.577150;-0.712158;0.381836;-0.345703;0.718914;-0.130733;-0.651108;-0.205257
29320;9.471571;-1.114970;4.712173;1.113872;-0.868263;-1.417591;-0.715332;0.351562;-0.343506;0.712895;-0.117974;-0.659656;-0.206681
29321;8.933759;-1.192589;4.261627;0.656930;-0.389000;-1.287195;-0.729492;0.333496;-0.343018;0.709136;-0.107796;-0.664298;-0.210270
29322;8.415956;-1.383544;3.882307;0.286768;-0.103348;-1.136763;-0.739258;0.323975;-0.342529;0.706805;-0.100126;-0.666385;-0.215251
29323;8.079367;-1.417910;3.608220;0.010194;0.003956;-1.017763;-0.733887;0.317627;-0.339111;0.704997;-0.094546;-0.667187;-0.221139
29324;7.885024;-1.450602;3.313594;-0.220514;0.004444;-0.986341;-0.737549;0.299072;-0.345215;0.703020;-0.090490;-0.667488;-0.228110
29325;7.794348;-1.572479;3.067459;-0.441349;-0.068142;-1.026217;-0.746582;0.291748;-0.341553;0.700344;-0.087638;-0.667772;-0.236469
29326;7.861961;-1.988661;3.011467;-0.627350;-0.180429;-1.088061;-0.758301;0.284912;-0.329102;0.696719;-0.085741;-0.668324;-0.246119
29327;7.928177;-2.680984;3.134645;-0.667948;-0.305360;-1.124111;-0.754395;0.269775;-0.330811;0.692215;-0.084126;-0.669464;-0.256083
29328;8.071133;-3.308500;3.466553;-0.540093;-0.448165;-1.098144;-0.761963;0.272705;-0.327393;0.686978;-0.082215;-0.671602;-0.265052
29329;8.419843;-3.713993;3.758302;-0.337229;-0.529982;-1.018788;-0.760498;0.265137;-0.312256;0.681526;-0.079760;-0.674529;-0.272344
29330;9.499542;-3.891194;4.110560;-0.159695;-0.504305;-0.901508;-0.777588;0.253662;-0.316650;0.676546;-0.076892;-0.677577;-0.277962
29331;10.764049;-4.112485;4.407488;0.013621;-0.372431;-0.758780;-0.775391;0.243896;-0.298096;0.672714;-0.073544;-0.680148;-0.281861
29332;12.026542;-4.135621;4.621519;0.163244;-0.138720;-0.582803;-0.780273;0.232422;-0.303223;0.670691;-0.069805;-0.681626;-0.284054
29333;12.918354;-4.123212;4.483382;0.245458;0.182054;-0.377119;-0.784424;0.232666;-0.308594;0.671013;-0.066016;-0.681372;-0.284809
29334;13.622081;-3.891163;4.082918;0.185631;0.500953;-0.119431;-0.777344;0.227295;-0.311035;0.673716;-0.063269;-0.679037;-0.284628
29335;15.049343;-3.591935;3.904004;-0.040589;0.676839;0.183721;-0.767334;0.227539;-0.312744;0.677998;-0.063090;-0.674998;-0.284107
29336;16.944618;-3.702388;4.310947;-0.266678;0.653527;0.464125;-0.760010;0.250488;-0.325684;0.682666;-0.065821;-0.670379;-0.283243
29337;17.860443;-4.108408;4.494676;-0.344196;0.700278;0.673127;-0.758301;0.252197;-0.332764;0.688005;-0.070049;-0.665153;-0.281627
29338;15.893255;-4.424691;3.709427;-0.308840;0.922665;0.916261;-0.746094;0.266846;-0.341309;0.695100;-0.074896;-0.658525;-0.278516
29339;12.998127;-4.166035;2.524707;-0.410590;1.184621;1.306444;-0.727295;0.277344;-0.353027;0.704350;-0.081854;-0.649783;-0.273812
29340;10.793986;-4.130396;1.701817;-0.569548;1.334259;1.856173;-0.701416;0.301025;-0.360107;0.715336;-0.092358;-0.639223;-0.266755
29341;9.850224;-4.405006;1.706970;-0.510988;1.193690;2.538379;-0.683350;0.346924;-0.379150;0.726789;-0.106416;-0.628799;-0.255078
29342;10.068323;-4.671738;2.045787;-0.064106;0.916971;3.151820;-0.670166;0.371338;-0.377197;0.738006;-0.121501;-0.620041;-0.236927
29343;11.233498;-4.179537;2.264361;0.550412;0.619709;3.591630;-0.641357;0.405762;-0.386719;0.748544;-0.135563;-0.613347;-0.212390
29344;12.963793;-3.242828;2.525397;1.017692;0.489929;3.740123;-0.611328;0.428467;-0.396240;0.758450;-0.147562;-0.607502;-0.184176
29345;14.164946;-2.219074;2.578116;1.238295;0.592009;3.721899;-0.592773;0.454590;-0.411133;0.768289;-0.157758;-0.600712;-0.154884
29346;15.303329;-1.606142;2.628831;1.189885;0.781519;3.635813;-0.552734;0.475098;-0.419189;0.778066;-0.167416;-0.592107;-0.126468
29347;15.702712;-1.155222;2.516387;0.997411;1.062724;3.501559;-0.521240;0.484619;-0.437256;0.788010;-0.177190;-0.581048;-0.100135
29348;15.114734;-0.820422;2.188211;0.694955;1.306021;3.337763;-0.480225;0.509521;-0.446289;0.797781;-0.187781;-0.567816;-0.076606
29349;14.025746;-0.736124;1.616329;0.320033;1.492535;3.172421;-0.448975;0.525635;-0.462891;0.807020;-0.199793;-0.552853;-0.056178
29350;12.814696;-0.661276;1.154353;-0.145294;1.584177;3.042563;-0.403564;0.541504;-0.469482;0.815157;-0.214123;-0.536804;-0.038877
29351;11.518823;-0.849364;0.808537;-0.602555;1.582867;2.950707;-0.364258;0.563965;-0.471191;0.821771;-0.230973;-0.520343;-0.024216
29352;10.317719;-1.131734;0.559401;-0.935384;1.467214;2.900792;-0.328125;0.581787;-0.468750;0.826566;-0.249722;-0.504285;-0.011102
29353;9.346688;-1.376433;0.521070;-1.096597;1.275377;2.896404;-0.288818;0.602051;-0.464111;0.829559;-0.269381;-0.489145;0.001708
29354;8.613575;-1.453107;0.526694;-1.070971;1.079483;2.930334;-0.253906;0.619629;-0.460938;0.831163;-0.288789;-0.474906;0.015291
29355;7.981522;-1.535212;0.498838;-1.033697;0.941877;3.085286;-0.223389;0.633545;-0.449707;0.831636;-0.308307;-0.460872;0.030409
29356;7.494175;-1.982085;0.538799;-0.868412;0.848933;3.269955;-0.182861;0.656982;-0.436035;0.831438;-0.327108;-0.446587;0.047651
29357;7.233487;-1.728651;0.871798;-0.618250;0.737116;3.300977;-0.138184;0.664307;-0.433105;0.830792;-0.343972;-0.432518;0.066299
29358;7.119127;-1.418965;1.205894;-0.373683;0.589520;3.085905;-0.106445;0.670410;-0.435303;0.829796;-0.358021;-0.419623;0.084707
29359;6.748826;-1.106020;1.529420;-0.095465;0.460471;2.734189;-0.072510;0.672119;-0.440186;0.828911;-0.368603;-0.408213;0.101985
29360;6.787341;-0.539647;1.757685;0.161882;0.426381;2.334069;-0.053223;0.671631;-0.434326;0.828651;-0.375842;-0.397858;0.117426
29361;7.278758;0.180866;1.882221;0.237823;0.447484;1.881789;-0.039062;0.664062;-0.429932;0.828867;-0.380952;-0.388568;0.129886
29362;7.476057;0.537932;2.024869;0.117385;0.492929;1.375777;-0.021240;0.666748;-0.437500;0.829223;-0.385222;-0.380620;0.138283
29363;7.614632;0.334625;2.168338;-0.027227;0.549093;0.880675;-0.002686;0.662354;-0.435547;0.829770;-0.388940;-0.373997;0.142599
29364;7.860112;0.093777;2.216043;-0.105617;0.589719;0.474125;0.010254;0.659912;-0.433838;0.830625;-0.391955;-0.368483;0.143713
29365;8.394033;0.113298;2.380215;-0.110306;0.580270;0.140278;0.020264;0.662109;-0.427734;0.831809;-0.393951;-0.364120;0.142523
29366;9.210895;0.276863;2.461604;-0.088928;0.546819;-0.210285;0.016846;0.653564;-0.434814;0.833360;-0.394682;-0.361106;0.139069
29367;9.713262;0.138892;2.512497;-0.048657;0.473884;-0.602339;0.018799;0.664795;-0.433594;0.835252;-0.393854;-0.359832;0.133243
29368;9.945510;-0.044978;2.513161;0.094307;0.310927;-0.979862;0.014160;0.657715;-0.421631;0.837499;-0.390693;-0.360754;0.125740
29369;10.520711;0.155965;2.711672;0.291227;0.034301;-1.305646;0.000488;0.658203;-0.435303;0.839817;-0.384848;-0.364428;0.117439
29370;11.785737;0.663558;3.032559;0.443162;-0.266574;-1.652195;-0.016113;0.659424;-0.440918;0.841911;-0.376527;-0.371113;0.108114
29371;13.214210;1.063067;3.155353;0.490956;-0.427011;-2.038600;-0.036865;0.654785;-0.439941;0.843789;-0.366430;-0.379998;0.096696
29372;13.163296;0.647869;3.112693;0.468840;-0.436941;-2.456214;-0.063721;0.653564;-0.443115;0.845586;-0.355016;-0.390105;0.082260
29373;11.037554;-0.760211;2.697489;0.674504;-0.613719;-2.893762;-0.101074;0.638916;-0.448975;0.847260;-0.340415;-0.402402;0.065883
29374;9.081968;-2.101918;2.808436;0.960311;-1.180671;-3.199270;-0.141113;0.628906;-0.457031;0.847375;-0.322205;-0.419111;0.049863
29375;9.599049;-3.167586;3.662309;1.351053;-1.918779;-3.347269;-0.181885;0.609375;-0.468750;0.845164;-0.300087;-0.440844;0.036093
29376;11.203192;-3.930003;4.730804;1.821982;-2.522455;-3.459024;-0.246094;0.586914;-0.470459;0.840824;-0.273665;-0.466380;0.024726
29377;12.650193;-4.630182;5.707214;2.331598;-2.938902;-3.450084;-0.298096;0.555664;-0.474609;0.834640;-0.243174;-0.493940;0.016311
29378;14.442089;-4.341498;6.237676;2.652505;-2.924353;-3.365927;-0.345459;0.511230;-0.481445;0.827624;-0.210356;-0.520282;0.009742
29379;15.673499;-3.713400;6.149258;2.525369;-2.419261;-3.222517;-0.401855;0.472656;-0.487549;0.821143;-0.178716;-0.542012;0.002708
29380;15.297060;-3.258142;5.571767;2.055544;-1.592769;-2.997272;-0.434326;0.444580;-0.498535;0.816599;-0.151089;-0.557046;-0.006141
29381;13.705857;-2.891366;4.824575;1.474653;-0.892741;-2.714797;-0.450195;0.400635;-0.498291;0.813850;-0.128551;-0.566432;-0.016640
29382;11.836711;-2.254923;4.341734;0.813753;-0.663996;-2.466258;-0.476074;0.375000;-0.500732;0.811015;-0.111559;-0.573568;-0.028806
29383;10.366459;-1.907436;4.143882;0.095186;-0.841706;-2.283539;-0.488037;0.363281;-0.498779;0.806339;-0.100289;-0.581302;-0.042992
29384;9.728029;-1.861196;4.004440;-0.510456;-1.034851;-2.125445;-0.506836;0.347900;-0.477051;0.799949;-0.093883;-0.589747;-0.058870
29385;9.382944;-2.099690;3.852289;-0.950041;-1.008245;-2.020288;-0.533691;0.347412;-0.469971;0.793071;-0.090874;-0.597473;-0.076201
29386;9.050233;-2.464352;3.640129;-1.134790;-0.807366;-1.922309;-0.547119;0.346436;-0.467041;0.786795;-0.089410;-0.603438;-0.093925
29387;8.738169;-2.703611;3.439289;-1.095031;-0.565364;-1.882263;-0.566162;0.336914;-0.441406;0.781507;-0.087665;-0.607592;-0.111329
29388;8.514773;-2.723364;3.144137;-1.009300;-0.370526;-1.902275;-0.575684;0.329102;-0.442383;0.776983;-0.085051;-0.610363;-0.128532
29389;8.281597;-2.785683;2.932548;-0.960999;-0.259724;-1.959835;-0.580078;0.324463;-0.438477;0.772738;-0.081686;-0.612305;-0.145895
29390;8.059713;-2.751658;2.741930;-0.986673;-0.221018;-1.989881;-0.584473;0.320557;-0.427246;0.768376;-0.078259;-0.613778;-0.163556
29391;7.882985;-2.778210;2.579882;-1.110009;-0.262455;-1.959536;-0.603271;0.313965;-0.416748;0.763494;-0.075807;-0.615113;-0.181566
29392;8.055211;-2.913907;2.558170;-1.264260;-0.337111;-1.846705;-0.615967;0.300293;-0.422363;0.758033;-0.075003;-0.616398;-0.199535
29393;8.489852;-3.428831;2.743969;-1.391232;-0.402979;-1.731822;-0.614258;0.306396;-0.401367;0.752078;-0.075675;-0.617597;-0.217315
29394;8.761801;-4.098028;3.183741;-1.331339;-0.488569;-1.698816;-0.634521;0.304199;-0.397217;0.745520;-0.076273;-0.619206;-0.234448
29395;8.856600;-4.645998;3.552809;-1.094507;-0.604343;-1.682806;-0.639160;0.292480;-0.391602;0.738309;-0.075685;-0.621786;-0.250108
29396;9.036526;-5.111506;3.854867;-0.769706;-0.719259;-1.635068;-0.650879;0.277832;-0.382812;0.730600;-0.073567;-0.625543;-0.263643
29397;9.592736;-5.234083;4.010893;-0.454662;-0.799767;-1.494859;-0.664062;0.276855;-0.371094;0.722801;-0.070424;-0.630247;-0.274568
29398;10.559698;-5.311452;4.334058;-0.255057;-0.837458;-1.281301;-0.679932;0.265381;-0.366455;0.715276;-0.067276;-0.635389;-0.283081
29399;11.419490;-5.532683;4.700511;-0.110746;-0.812396;-1.032709;-0.683105;0.250488;-0.351318;0.708451;-0.064518;-0.640492;-0.289317
29400;11.936042;-5.800420;4.999134;0.045888;-0.730961;-0.748051;-0.687012;0.243896;-0.343018;0.702766;-0.062156;-0.645274;-0.293049
29401;12.161886;-5.855260;4.955458;0.241040;-0.594828;-0.401578;-0.696533;0.238770;-0.347900;0.698723;-0.060180;-0.649518;-0.293753
29402;12.073270;-5.353363;4.524170;0.312175;-0.457714;0.000424;-0.692383;0.236816;-0.339111;0.696423;-0.059633;-0.652916;-0.291787
29403;12.321661;-4.788395;4.272159;0.120239;-0.346240;0.436739;-0.695801;0.235840;-0.327393;0.695683;-0.062303;-0.654967;-0.288378
29404;13.651039;-4.977320;4.958497;-0.083603;-0.362413;0.818729;-0.702393;0.250488;-0.321289;0.695641;-0.068279;-0.656395;-0.283844
29405;14.725826;-5.835026;5.795575;0.140727;-0.469147;1.035052;-0.700928;0.256104;-0.312744;0.695604;-0.074388;-0.658798;-0.276743
29406;15.143489;-6.294965;6.096052;0.727055;-0.320252;1.168903;-0.702637;0.256348;-0.327148;0.696978;-0.077484;-0.661529;-0.265704
29407;13.481448;-5.870312;5.156686;1.234605;0.198105;1.398727;-0.689941;0.259277;-0.331543;0.701914;-0.077738;-0.662093;-0.250812
29408;12.250921;-4.816657;3.770054;1.271429;0.876768;1.904729;-0.687500;0.279297;-0.337646;0.711445;-0.079127;-0.658213;-0.233111
29409;11.472300;-4.016919;2.738416;1.011628;1.438941;2.486737;-0.665039;0.290283;-0.363525;0.724639;-0.084116;-0.649758;-0.213629
29410;11.338336;-3.659800;2.265339;0.737631;1.751051;3.099218;-0.635498;0.310791;-0.371826;0.739851;-0.093454;-0.637989;-0.191982
29411;11.942826;-3.316381;1.979224;0.664730;1.851158;3.591330;-0.600586;0.341064;-0.391846;0.755548;-0.105600;-0.624434;-0.167565
29412;12.991277;-2.822685;1.883166;0.703271;1.834643;3.926774;-0.570068;0.364990;-0.418945;0.770709;-0.119140;-0.609953;-0.140610
29413;14.258687;-2.105865;1.980910;0.754433;1.756782;4.082783;-0.533203;0.389648;-0.428711;0.784638;-0.133070;-0.595033;-0.112121
29414;15.265609;-1.455667;2.162063;0.755964;1.620738;4.066011;-0.498291;0.409668;-0.448486;0.796780;-0.146847;-0.580188;-0.083426
29415;15.535717;-0.737464;2.307410;0.639824;1.474596;3.909539;-0.462158;0.427490;-0.454102;0.806914;-0.160547;-0.565662;-0.056044
29416;15.087521;-0.167868;2.166604;0.342342;1.372274;3.669770;-0.426758;0.455078;-0.474121;0.815114;-0.174977;-0.551345;-0.031474
29417;14.263636;0.269835;1.801622;-0.142100;1.303251;3.385557;-0.395996;0.464844;-0.472412;0.821396;-0.191231;-0.537233;-0.010930
29418;13.277278;0.342642;1.580706;-0.708562;1.252253;3.131795;-0.370605;0.496826;-0.483398;0.825800;-0.210062;-0.523353;0.005430
29419;12.108939;0.140885;1.383061;-1.215241;1.191572;2.935451;-0.335693;0.519775;-0.470947;0.828382;-0.231346;-0.509830;0.018328
29420;11.068252;-0.271197;1.249228;-1.526683;1.087011;2.788017;-0.303223;0.541504;-0.468018;0.829276;-0.253950;-0.496956;0.029069
29421;10.360869;-0.699226;1.156307;-1.634513;0.940656;2.647820;-0.279053;0.571289;-0.464355;0.828733;-0.276486;-0.485038;0.038680
29422;9.685022;-1.024766;1.243765;-1.509207;0.763074;2.500251;-0.246826;0.600830;-0.449951;0.827233;-0.297311;-0.474313;0.048158
29423;8.976160;-1.021729;1.320049;-1.221393;0.583704;2.362592;-0.230713;0.614502;-0.438721;0.825310;-0.315363;-0.464777;0.058238
29424;8.347517;-0.804949;1.195033;-0.849883;0.489869;2.226086;-0.208496;0.627930;-0.438965;0.823679;-0.330135;-0.455849;0.069035
29425;7.730261;-0.401202;0.967211;-0.526412;0.444454;2.094724;-0.180176;0.631104;-0.437500;0.822527;-0.342036;-0.447237;0.080255
29426;7.205205;-0.085904;0.890797;-0.276658;0.403441;1.943009;-0.157959;0.645020;-0.433105;0.821777;-0.351523;-0.439033;0.091455
29427;6.895448;0.213610;0.970215;-0.089754;0.304611;1.757624;-0.152100;0.646484;-0.436279;0.821146;-0.358886;-0.431797;0.102333
29428;7.027301;0.459946;1.274587;0.028281;0.136691;1.512975;-0.125977;0.641602;-0.432617;0.820312;-0.364346;-0.426260;0.112440
29429;7.047383;0.809049;1.578214;0.082239;-0.014350;1.215901;-0.115967;0.652100;-0.437256;0.819275;-0.368189;-0.422550;0.121149
29430;7.117326;0.960312;1.810734;0.021917;-0.076358;0.899109;-0.113037;0.647461;-0.432129;0.818087;-0.371233;-0.420264;0.127659
29431;7.372337;0.879686;1.942847;-0.045803;-0.021095;0.599044;-0.114258;0.645508;-0.432861;0.817169;-0.373729;-0.418586;0.131707
29432;8.083746;0.792216;2.096840;-0.084491;0.105146;0.328722;-0.106689;0.652344;-0.437256;0.816854;-0.375675;-0.416926;0.133380
29433;8.714878;0.838290;2.164702;-0.115955;0.205507;0.041918;-0.107178;0.650635;-0.435059;0.817103;-0.376945;-0.415515;0.132672
29434;9.161575;0.836282;2.178137;-0.180453;0.244220;-0.271112;-0.096924;0.655518;-0.439209;0.817625;-0.377606;-0.414895;0.129482
29435;9.491768;0.789003;1.995131;-0.228481;0.236784;-0.609121;-0.100830;0.651855;-0.437012;0.818317;-0.377407;-0.415433;0.123840
29436;9.798223;0.702799;1.773724;-0.254152;0.183477;-0.963997;-0.112549;0.655029;-0.435303;0.819069;-0.376076;-0.417459;0.115846
29437;10.871532;0.611304;1.826255;-0.244210;0.061430;-1.319542;-0.123779;0.655273;-0.433838;0.819692;-0.373283;-0.421385;0.105827
29438;12.638228;0.598049;2.086351;-0.158487;-0.070500;-1.713710;-0.154053;0.652344;-0.430664;0.820332;-0.368340;-0.427297;0.093805
29439;13.592547;0.472304;2.227772;0.020031;-0.156205;-2.211577;-0.166016;0.661377;-0.437012;0.821381;-0.360232;-0.435070;0.079248
29440;13.105023;-0.238148;2.150994;0.312565;-0.267353;-2.787283;-0.195801;0.642822;-0.433594;0.822921;-0.347798;-0.444950;0.062105
29441;11.106868;-1.545446;2.234040;0.736020;-0.579601;-3.337257;-0.227783;0.634033;-0.435059;0.824247;-0.330017;-0.458042;0.043619
29442;10.250423;-2.956417;2.754641;1.263602;-1.251326;-3.700572;-0.271240;0.611816;-0.444336;0.823769;-0.306652;-0.476099;0.026454
29443;11.118540;-3.906903;3.920001;1.871497;-2.110534;-3.938799;-0.330811;0.577148;-0.445557;0.820336;-0.277554;-0.499863;0.012223
29444;12.045156;-4.583069;4.934570;2.460651;-2.885854;-4.014545;-0.385254;0.534180;-0.456543;0.813510;-0.243519;-0.528107;0.001698
29445;13.321439;-4.584960;5.430210;2.885210;-3.154866;-3.862322;-0.432617;0.482666;-0.452881;0.804562;-0.206738;-0.556695;-0.005386
29446;14.167794;-3.880135;5.228822;2.996134;-2.799908;-3.498122;-0.490723;0.427246;-0.458740;0.795731;-0.170441;-0.581085;-0.010115
29447;14.474541;-2.832240;4.653346;2.644077;-1.993725;-2.903950;-0.520996;0.386230;-0.450195;0.789016;-0.138998;-0.598285;-0.013736
29448;13.784098;-2.014200;4.010598;2.021274;-1.094954;-2.273414;-0.540039;0.351318;-0.452637;0.785315;-0.114544;-0.608160;-0.017343
29449;12.604926;-1.132795;3.595175;1.153387;-0.460061;-1.687839;-0.548828;0.315186;-0.462891;0.783685;-0.098585;-0.612887;-0.022113
29450;11.291123;-0.459400;3.336809;0.159747;-0.222735;-1.360961;-0.563721;0.312500;-0.457275;0.782340;-0.090719;-0.615478;-0.030014
29451;10.209269;-0.371051;3.023453;-0.892400;-0.270159;-1.250244;-0.569824;0.309570;-0.446533;0.779867;-0.090277;-0.617938;-0.042548
29452;9.536186;-0.760910;2.687305;-1.724468;-0.427867;-1.300489;-0.573975;0.318359;-0.437744;0.775741;-0.095016;-0.621007;-0.059565
29453;9.211489;-1.439332;2.544626;-2.196555;-0.518760;-1.399633;-0.587891;0.322754;-0.428955;0.770402;-0.102299;-0.624248;-0.079569
29454;9.126729;-2.065543;2.569876;-2.277909;-0.481140;-1.480723;-0.598389;0.331543;-0.419678;0.764743;-0.109605;-0.626940;-0.100507
29455;9.158050;-2.521002;2.530253;-2.061081;-0.329854;-1.571479;-0.598145;0.338135;-0.399170;0.759613;-0.114873;-0.628615;-0.120979
29456;9.247916;-2.660150;2.375955;-1.758183;-0.122538;-1.691820;-0.612793;0.335449;-0.389404;0.755401;-0.117335;-0.629116;-0.140769
29457;9.186673;-2.748103;2.246714;-1.502855;0.074003;-1.830871;-0.622803;0.333008;-0.390381;0.752003;-0.117183;-0.628559;-0.160229
29458;9.052909;-3.042506;2.130716;-1.278614;0.215281;-1.913145;-0.626953;0.324463;-0.379883;0.749169;-0.114963;-0.627256;-0.179105
29459;8.930063;-3.298191;2.039186;-1.038691;0.274599;-1.944999;-0.632812;0.316406;-0.387451;0.746562;-0.110952;-0.625746;-0.196917
29460;8.830561;-3.312276;1.891414;-0.889474;0.228175;-1.949134;-0.641846;0.298340;-0.379883;0.743599;-0.106031;-0.624564;-0.213865
29461;8.842536;-3.432229;1.930537;-0.869687;0.107278;-1.932728;-0.647949;0.292969;-0.385254;0.739818;-0.101256;-0.623954;-0.230430
29462;8.912966;-3.586801;2.058156;-0.922875;-0.039776;-1.865924;-0.649170;0.287109;-0.372559;0.735131;-0.097412;-0.623899;-0.246663
29463;9.017727;-3.813174;2.217508;-1.076478;-0.169692;-1.747904;-0.666748;0.275879;-0.375977;0.729670;-0.095363;-0.624043;-0.262789
29464;8.786509;-4.328434;2.405704;-1.194802;-0.296272;-1.557147;-0.662598;0.270020;-0.365723;0.723670;-0.095278;-0.624367;-0.278191
29465;8.647405;-4.881514;2.586190;-1.164046;-0.405514;-1.287156;-0.672852;0.270020;-0.364014;0.717575;-0.096645;-0.625051;-0.291646
29466;8.849660;-5.369007;2.911027;-0.979405;-0.527730;-0.982371;-0.689209;0.262207;-0.344482;0.711601;-0.098779;-0.626551;-0.302159
29467;9.504582;-5.692162;3.335556;-0.648489;-0.638272;-0.678739;-0.684326;0.260254;-0.340332;0.706003;-0.100808;-0.629212;-0.309013
29468;10.406197;-5.947099;3.806431;-0.210276;-0.700906;-0.410333;-0.695312;0.258545;-0.334473;0.701091;-0.101825;-0.633099;-0.311911
29469;11.386395;-5.969991;4.138243;0.272631;-0.664278;-0.172416;-0.690186;0.257812;-0.330322;0.697373;-0.101182;-0.637796;-0.310885
29470;12.108428;-5.735746;4.131917;0.686382;-0.483433;0.075104;-0.701172;0.254150;-0.335205;0.695581;-0.098983;-0.642274;-0.306355
29471;13.055703;-5.180086;3.903165;0.922970;-0.185091;0.396447;-0.699463;0.252930;-0.319580;0.696363;-0.096370;-0.645321;-0.298919
29472;14.634982;-4.666245;4.120655;0.906584;-0.005414;0.708224;-0.701416;0.245850;-0.323730;0.698821;-0.095079;-0.646978;-0.289877
29473;16.290464;-4.782482;4.810236;0.881129;-0.025105;0.925426;-0.703369;0.244385;-0.330566;0.701610;-0.095150;-0.648446;-0.279657
29474;16.618891;-4.999706;5.179749;0.944305;0.063417;1.047355;-0.696533;0.257324;-0.333008;0.705126;-0.095298;-0.649362;-0.268412
29475;14.371352;-4.757367;4.309570;0.957774;0.375610;1.264101;-0.691650;0.257812;-0.345459;0.710716;-0.095830;-0.648192;-0.256021
29476;12.288631;-3.947158;2.967141;0.559182;0.825376;1.715289;-0.676025;0.270996;-0.357666;0.719219;-0.100183;-0.642993;-0.243406
29477;10.949988;-3.712475;2.048802;0.085137;1.221425;2.302947;-0.667236;0.297852;-0.363525;0.730370;-0.109689;-0.633725;-0.230045
29478;10.776025;-3.588761;1.795068;-0.205999;1.419441;3.001092;-0.648926;0.311523;-0.380859;0.743181;-0.124207;-0.621656;-0.214007
29479;11.222539;-3.479306;1.919534;-0.121895;1.390917;3.615874;-0.623047;0.354980;-0.390137;0.756346;-0.141323;-0.608710;-0.193495
29480;12.438455;-2.914776;2.081359;0.197245;1.244508;4.016327;-0.583496;0.392334;-0.409424;0.768921;-0.158541;-0.596029;-0.168448
29481;13.881298;-1.977878;2.207434;0.511216;1.103993;4.175254;-0.559814;0.426758;-0.419922;0.780452;-0.174528;-0.583710;-0.140418
29482;15.028791;-1.132579;2.283242;0.691800;0.987699;4.120979;-0.525635;0.451416;-0.437256;0.790590;-0.188983;-0.571680;-0.111511
29483;15.385710;-0.413201;2.290189;0.718334;0.912484;3.887310;-0.493652;0.475342;-0.448242;0.799230;-0.201986;-0.559837;-0.083760
29484;14.761225;-0.103901;2.107614;0.632271;0.839659;3.536000;-0.467041;0.486328;-0.455566;0.806296;-0.213764;-0.548419;-0.058543
29485;13.668713;-0.070009;1.862402;0.432450;0.772177;3.163583;-0.443359;0.512939;-0.466553;0.811826;-0.225031;-0.537552;-0.036572
29486;12.433337;-0.230227;1.541143;0.230527;0.724232;2.846535;-0.414795;0.526123;-0.472656;0.816109;-0.236102;-0.527176;-0.017539
29487;11.120714;-0.325788;1.214908;0.033081;0.671643;2.647676;-0.386963;0.529297;-0.475830;0.819278;-0.247512;-0.517224;-0.000615
29488;10.165453;-0.381742;0.983187;-0.170486;0.604313;2.533737;-0.364014;0.559082;-0.482910;0.821323;-0.259694;-0.507709;0.014789
29489;9.475317;-0.428219;0.898677;-0.356570;0.521554;2.442332;-0.330811;0.570557;-0.481445;0.822244;-0.272629;-0.498748;0.028951
29490;8.818759;-0.645102;0.918753;-0.458033;0.419258;2.305907;-0.318359;0.591064;-0.484131;0.822191;-0.285550;-0.490614;0.041973
29491;8.067550;-1.028701;1.011956;-0.437401;0.247334;2.144773;-0.292236;0.600342;-0.479980;0.821232;-0.297501;-0.483855;0.054366
29492;7.639335;-1.361157;1.216086;-0.258433;0.030348;2.002890;-0.283936;0.606201;-0.473633;0.819647;-0.307461;-0.478701;0.067027
29493;7.486552;-1.357915;1.385775;-0.001060;-0.094954;1.864357;-0.262207;0.613525;-0.476562;0.818078;-0.314956;-0.474489;0.080070
29494;7.255104;-1.157671;1.416028;0.195751;-0.123787;1.718720;-0.241211;0.623291;-0.482178;0.816822;-0.320440;-0.470617;0.092953
29495;7.112411;-1.001953;1.528663;0.301214;-0.097862;1.567142;-0.229980;0.617920;-0.477783;0.815905;-0.324566;-0.466802;0.105127
29496;6.940466;-0.891868;1.608823;0.357662;-0.049303;1.401012;-0.219238;0.620117;-0.478760;0.815341;-0.327649;-0.462983;0.116240
29497;6.910617;-0.745337;1.723590;0.390538;-0.002924;1.227740;-0.206543;0.617432;-0.497070;0.815107;-0.329838;-0.459230;0.126156
29498;7.096241;-0.576940;1.828685;0.374307;0.035321;1.022829;-0.197510;0.615723;-0.491455;0.815107;-0.331358;-0.455754;0.134498
29499;7.404787;-0.485094;1.882369;0.327967;0.096946;0.791857;-0.191895;0.612305;-0.493652;0.815418;-0.332359;-0.452521;0.140911
29500;7.781904;-0.409314;1.842109;0.244000;0.180850;0.558122;-0.184814;0.612061;-0.502686;0.816054;-0.333131;-0.449447;0.145178
29501;8.015097;-0.260497;1.681868;0.125253;0.267144;0.337660;-0.177979;0.620850;-0.497070;0.816934;-0.333977;-0.446536;0.147254
29502;8.459635;-0.130670;1.541032;-0.033570;0.309314;0.131676;-0.179688;0.619629;-0.498535;0.817772;-0.335183;-0.444105;0.147213
29503;8.983258;0.061680;1.452849;-0.206435;0.307695;-0.093287;-0.176758;0.619141;-0.500488;0.818391;-0.336725;-0.442525;0.144997
29504;9.028029;0.018427;1.319311;-0.328837;0.267082;-0.367104;-0.167236;0.626465;-0.495361;0.818835;-0.338033;-0.442135;0.140569
29505;8.755060;-0.196451;1.158376;-0.318234;0.176574;-0.637731;-0.174072;0.622559;-0.497559;0.819268;-0.338151;-0.443105;0.134580
29506;9.236639;-0.079592;1.100489;-0.231874;0.024871;-0.874786;-0.181641;0.630127;-0.498291;0.819612;-0.336613;-0.445666;0.127707
29507;10.516937;0.353353;1.403212;-0.135437;-0.170931;-1.137565;-0.189697;0.626709;-0.494141;0.819719;-0.333204;-0.450169;0.119933
29508;12.612536;0.631563;1.930460;-0.019744;-0.358589;-1.500485;-0.218506;0.622803;-0.489746;0.819700;-0.327406;-0.456795;0.110614
29509;13.870087;0.200680;2.401860;0.183276;-0.466956;-2.070739;-0.228271;0.615479;-0.497559;0.820153;-0.317867;-0.465426;0.098434
29510;13.024195;-0.967416;2.595906;0.592901;-0.620565;-2.780332;-0.264893;0.604248;-0.501465;0.821307;-0.302501;-0.476446;0.083350
29511;10.975609;-2.023595;2.609724;1.089357;-1.036322;-3.376764;-0.299561;0.577393;-0.500000;0.821846;-0.280844;-0.491110;0.067136
29512;9.276460;-2.968309;2.801164;1.531280;-1.711715;-3.702244;-0.358643;0.549561;-0.504883;0.819905;-0.254131;-0.510361;0.052004
29513;8.763860;-3.473776;3.293239;1.926526;-2.383867;-3.727278;-0.406982;0.504395;-0.509277;0.814751;-0.223949;-0.533338;0.039728
29514;9.363060;-3.582991;3.910705;2.146138;-2.839024;-3.468392;-0.458252;0.460693;-0.500488;0.806540;-0.192905;-0.557963;0.030968
29515;10.513308;-3.379468;4.693727;2.210139;-2.998166;-3.021489;-0.512207;0.406982;-0.496826;0.796239;-0.163149;-0.582000;0.025714
29516;12.265693;-2.514451;5.234992;2.080930;-2.646684;-2.473980;-0.541748;0.382080;-0.492676;0.786230;-0.136752;-0.602175;0.022951
