// Start Time: Unknown
// Update Rate: 60.0Hz
// Filter Profile: human (46.1)
// Firmware Version: 4.4.0
PacketCounter;Acc_X;Acc_Y;Acc_Z;Gyr_X;Gyr_Y;Gyr_Z;Mag_X;Mag_Y;Mag_Z;Quat_q0;Quat_q1;Quat_q2;Quat_q3
28597;9.567366;-1.136054;1.944695;-0.024344;-0.008650;0.005057;-0.777588;-0.030518;0.420898;-0.044189;-0.623568;0.110404;-0.772672
28598;9.562924;-1.212805;1.903198;-0.065052;-0.002029;-0.006695;-0.776367;-0.027588;0.426758;-0.044568;-0.623563;0.110789;-0.772599
28599;9.511927;-1.305084;1.990900;-0.083244;0.003741;-0.024131;-0.780273;-0.031494;0.429443;-0.045154;-0.623535;0.111199;-0.772528
28600;9.487234;-1.406398;2.025312;-0.085149;0.006233;-0.029252;-0.778809;-0.032227;0.433838;-0.045789;-0.623489;0.111595;-0.772471
28601;9.513591;-1.511394;1.981365;-0.048001;0.004963;-0.021721;-0.775879;-0.019775;0.420410;-0.046177;-0.623456;0.111796;-0.772446
28602;9.462961;-1.458166;2.054216;-0.007003;-0.004716;-0.002115;-0.779297;-0.029297;0.423828;-0.046208;-0.623479;0.111849;-0.772417
28603;9.456803;-1.329040;2.189734;0.019056;-0.013113;0.014443;-0.779297;-0.031006;0.425781;-0.045980;-0.623545;0.111834;-0.772380
28604;9.462051;-1.299895;2.268823;0.024328;-0.015538;0.015899;-0.778076;-0.022217;0.428467;-0.045707;-0.623614;0.111799;-0.772345
28605;9.577370;-1.276234;2.251342;0.032126;-0.003254;0.009648;-0.780273;-0.033203;0.432861;-0.045440;-0.623596;0.111683;-0.772393
28606;9.681634;-1.292477;2.138153;0.027340;0.008798;-0.003781;-0.786377;-0.031250;0.421875;-0.045290;-0.623494;0.111526;-0.772506
28607;9.632381;-1.370969;1.927792;0.032909;0.017348;-0.007504;-0.776855;-0.034912;0.420410;-0.045138;-0.623333;0.111316;-0.772676
28608;9.493852;-1.247168;1.823123;0.015812;0.005764;-0.004421;-0.773682;-0.029053;0.425537;-0.045034;-0.623238;0.111251;-0.772768
28609;9.432589;-1.256462;1.939580;-0.022361;-0.003408;-0.000176;-0.777588;-0.029785;0.427246;-0.045086;-0.623192;0.111464;-0.772771
28610;9.493523;-1.272054;2.131527;-0.027350;-0.004387;-0.002325;-0.774658;-0.032227;0.422852;-0.045170;-0.623152;0.111706;-0.772763
28611;9.614946;-1.281305;2.172707;-0.035225;0.014129;-0.011141;-0.784668;-0.025146;0.423584;-0.045366;-0.622984;0.111953;-0.772851
28612;9.573222;-1.338174;2.086035;-0.025287;0.027778;-0.019921;-0.781494;-0.031250;0.418701;-0.045565;-0.622721;0.112089;-0.773032
28613;9.487540;-1.299389;2.057284;-0.011085;0.025697;-0.014591;-0.783447;-0.028320;0.426025;-0.045654;-0.622464;0.112176;-0.773221
28614;9.426115;-1.234951;2.066408;-0.014804;0.013282;-0.010022;-0.782715;-0.029053;0.419434;-0.045705;-0.622272;0.112315;-0.773352
28615;9.514476;-1.107008;2.058908;-0.036041;0.009409;-0.003667;-0.773193;-0.032715;0.424805;-0.045827;-0.622088;0.112634;-0.773447
28616;9.593652;-1.107902;2.070140;-0.075045;0.009860;0.003576;-0.780273;-0.033447;0.422852;-0.046142;-0.621897;0.113217;-0.773496
28617;9.600644;-1.113840;2.094770;-0.112015;0.017919;0.005640;-0.780518;-0.034668;0.422852;-0.046627;-0.621615;0.114050;-0.773572
28618;9.508571;-1.096158;2.010550;-0.165901;0.025519;-0.003822;-0.772705;-0.037598;0.420654;-0.047469;-0.621267;0.115167;-0.773635
28619;9.483273;-1.129897;1.936844;-0.196311;0.031564;-0.018510;-0.776855;-0.026611;0.427246;-0.048618;-0.620919;0.116387;-0.773660
28620;9.498657;-1.156891;1.921742;-0.215669;0.029110;-0.023970;-0.785400;-0.029785;0.424316;-0.049840;-0.620588;0.117655;-0.773656
28621;9.463594;-1.250715;1.888164;-0.202481;0.018492;-0.033494;-0.786865;-0.036133;0.420654;-0.051019;-0.620305;0.118814;-0.773629
28622;9.486578;-1.283059;1.822606;-0.165933;0.004402;-0.037406;-0.775146;-0.033447;0.425293;-0.052033;-0.620132;0.119752;-0.773556
28623;9.507174;-1.282267;1.812947;-0.123825;-0.008882;-0.034772;-0.777832;-0.031982;0.424561;-0.052823;-0.620150;0.120395;-0.773388
28624;9.492546;-1.085173;1.983675;-0.142562;-0.022313;-0.027143;-0.786133;-0.031738;0.419678;-0.053617;-0.620238;0.121215;-0.773134
28625;9.520768;-1.116999;2.098358;-0.220116;-0.029091;-0.027173;-0.778564;-0.033447;0.419922;-0.054779;-0.620291;0.122555;-0.772799
28626;9.575159;-1.260104;2.129229;-0.281271;-0.023288;-0.026795;-0.786133;-0.038086;0.414062;-0.056311;-0.620310;0.124263;-0.772401
28627;9.556943;-1.461150;2.103400;-0.279717;-0.027593;-0.034262;-0.787109;-0.041260;0.427246;-0.057868;-0.620299;0.125970;-0.772018
28628;9.553105;-1.551785;2.182120;-0.236124;-0.032128;-0.033657;-0.770264;-0.034668;0.420898;-0.059116;-0.620330;0.127364;-0.771669
28629;9.512473;-1.573062;2.210133;-0.207163;-0.019205;-0.050362;-0.774414;-0.043701;0.417969;-0.060406;-0.620393;0.128468;-0.771336
28630;9.524676;-1.704629;2.138215;-0.198956;-0.010579;-0.050006;-0.782227;-0.047852;0.417725;-0.061670;-0.620336;0.129587;-0.771095
28631;9.460474;-1.815429;2.030998;-0.144351;-0.012583;-0.044406;-0.785645;-0.045898;0.417725;-0.062548;-0.620247;0.130433;-0.770953
28632;9.433452;-1.717457;1.965027;-0.141667;-0.023835;-0.011521;-0.771484;-0.045654;0.428711;-0.063104;-0.620171;0.131465;-0.770794
28633;9.394837;-1.752034;2.072657;-0.172786;-0.024529;0.008476;-0.788574;-0.054199;0.419678;-0.063703;-0.620183;0.132718;-0.770520
28634;9.540340;-1.747042;2.109270;-0.173808;-0.017497;0.003218;-0.772949;-0.050293;0.420166;-0.064300;-0.619987;0.134100;-0.770389
28635;9.577405;-1.692282;2.046032;-0.127834;-0.002892;-0.010204;-0.780762;-0.047852;0.417236;-0.064866;-0.619855;0.135069;-0.770278
28636;9.481310;-1.513769;1.839219;-0.102939;0.007587;-0.013493;-0.786377;-0.055420;0.417969;-0.065221;-0.619608;0.135889;-0.770303
28637;9.420966;-1.387746;1.713590;-0.094283;0.004837;-0.012534;-0.774170;-0.052734;0.416748;-0.065511;-0.619336;0.136696;-0.770355
28638;9.490054;-1.337813;1.858095;-0.104390;-0.000642;-0.014984;-0.775146;-0.055908;0.421875;-0.066026;-0.619222;0.137524;-0.770254
28639;9.484070;-1.265244;2.037893;-0.122478;-0.005446;-0.019781;-0.775635;-0.051025;0.417725;-0.066616;-0.619147;0.138392;-0.770109
28640;9.530626;-1.205097;2.109490;-0.139689;-0.000604;-0.031687;-0.775391;-0.055176;0.416748;-0.067351;-0.619040;0.139304;-0.769966
28641;9.556287;-1.374792;2.118839;-0.115161;0.005629;-0.050698;-0.781006;-0.056885;0.412354;-0.068157;-0.618909;0.139966;-0.769880
28642;9.560203;-1.298318;2.128531;-0.074194;0.023008;-0.059387;-0.775879;-0.054443;0.417236;-0.068795;-0.618624;0.140355;-0.769982
28643;9.631330;-1.320579;2.149781;-0.069198;0.039673;-0.065444;-0.782959;-0.053955;0.417480;-0.069436;-0.618326;0.140563;-0.770126
28644;9.548648;-1.352672;2.031900;-0.077862;0.047030;-0.066081;-0.788818;-0.045410;0.415039;-0.069981;-0.617927;0.140784;-0.770356
28645;9.497755;-1.546425;1.978107;-0.066523;0.041384;-0.058174;-0.778320;-0.059082;0.419678;-0.070180;-0.617544;0.140922;-0.770620
28646;9.442928;-1.615038;1.979928;-0.000321;0.031258;-0.048077;-0.776611;-0.056641;0.415527;-0.070290;-0.617329;0.140710;-0.770821
28647;9.420328;-1.629984;2.015359;0.072594;0.014745;-0.020033;-0.780273;-0.069824;0.412598;-0.069878;-0.617225;0.140240;-0.771027
28648;9.484116;-1.417425;2.155847;0.102133;0.007633;0.003730;-0.773438;-0.055420;0.417480;-0.069374;-0.617059;0.139852;-0.771276
28649;9.507920;-1.225454;2.134974;0.077835;0.010048;0.006899;-0.784424;-0.059326;0.420898;-0.068756;-0.616999;0.139453;-0.771452
28650;9.496724;-1.159762;2.070317;0.049463;0.013599;-0.001025;-0.777832;-0.052246;0.413330;-0.068158;-0.616831;0.139141;-0.771695
28651;9.532398;-1.047704;2.051376;-0.012679;0.021910;-0.013950;-0.777832;-0.052490;0.417480;-0.068142;-0.616602;0.139241;-0.771862
28652;9.495039;-1.127331;1.901929;-0.071930;0.025662;-0.017250;-0.770996;-0.055420;0.416504;-0.068372;-0.616363;0.139606;-0.771966
28653;9.478547;-1.287140;1.885502;-0.079486;0.020676;-0.014411;-0.788330;-0.058350;0.404053;-0.068822;-0.616198;0.140076;-0.771973
28654;9.494139;-1.342395;1.936103;-0.036198;0.010079;-0.014339;-0.773926;-0.056885;0.408936;-0.069037;-0.615868;0.140473;-0.772145
28655;9.530208;-1.395781;2.015274;-0.016219;-0.001165;-0.010884;-0.775146;-0.064453;0.417969;-0.069216;-0.615800;0.140679;-0.772146
28656;9.545957;-1.400452;2.098675;-0.005154;-0.000500;-0.011533;-0.777344;-0.060791;0.418701;-0.069281;-0.615797;0.140701;-0.772138
28657;9.562765;-1.338289;2.048834;0.001980;0.001405;-0.008589;-0.783691;-0.060791;0.416748;-0.069148;-0.615782;0.140644;-0.772172
28658;9.507947;-1.280370;2.047988;-0.018622;0.004212;-0.011685;-0.786377;-0.060547;0.415771;-0.069084;-0.615672;0.140715;-0.772253
28659;9.479148;-1.262058;2.059341;-0.049246;-0.000198;-0.012186;-0.776855;-0.062500;0.415039;-0.069148;-0.615548;0.140982;-0.772297
28660;9.515801;-1.416904;2.031915;-0.054969;-0.005573;-0.010362;-0.778076;-0.053223;0.413086;-0.069442;-0.615519;0.141350;-0.772227
28661;9.607349;-1.495302;2.007437;-0.020595;-0.005379;-0.010194;-0.772949;-0.060303;0.413574;-0.069347;-0.615497;0.141455;-0.772234
28662;9.613644;-1.533732;1.989648;0.031274;-0.007569;-0.009062;-0.772949;-0.056152;0.411133;-0.069216;-0.615547;0.141302;-0.772234
28663;9.472547;-1.470881;1.989560;0.093011;-0.011347;-0.005681;-0.777100;-0.061768;0.415771;-0.068689;-0.615630;0.140789;-0.772309
28664;9.461956;-1.302862;2.026505;0.104315;-0.019310;0.002128;-0.775635;-0.060059;0.416992;-0.068031;-0.615770;0.140203;-0.772362
28665;9.494294;-1.195517;2.093381;0.085168;-0.021729;0.000376;-0.774902;-0.061279;0.415771;-0.067459;-0.615940;0.139713;-0.772365
28666;9.505960;-1.142292;2.023909;0.026774;-0.015349;-0.004182;-0.778564;-0.048340;0.416748;-0.067323;-0.616021;0.139611;-0.772330
28667;9.516110;-1.208379;1.982194;-0.023814;-0.009711;-0.012484;-0.780273;-0.057617;0.412109;-0.067101;-0.616054;0.139658;-0.772315
28668;9.475526;-1.243316;1.952023;-0.046709;-0.006205;-0.027623;-0.772705;-0.054688;0.423340;-0.067444;-0.615979;0.139921;-0.772297
28669;9.431735;-1.382847;1.942926;-0.061144;-0.007768;-0.030905;-0.777588;-0.059326;0.416992;-0.067617;-0.616126;0.140053;-0.772141
28670;9.544541;-1.539367;2.015849;-0.029297;-0.009782;-0.022384;-0.771973;-0.063232;0.414795;-0.067771;-0.616162;0.140160;-0.772080
28671;9.508704;-1.515844;2.001968;0.019419;-0.010343;-0.010469;-0.777832;-0.062744;0.417969;-0.067821;-0.616220;0.140109;-0.772038
28672;9.536554;-1.434057;1.986065;0.043761;-0.013255;-0.004164;-0.779541;-0.063477;0.415283;-0.067532;-0.616301;0.139854;-0.772045
28673;9.528297;-1.330668;1.993115;0.041828;-0.021657;0.001670;-0.774658;-0.057617;0.412354;-0.067281;-0.616375;0.139700;-0.772036
28674;9.515057;-1.287301;1.947051;0.044104;-0.027667;0.005852;-0.777344;-0.054443;0.411621;-0.066964;-0.616484;0.139587;-0.771996
28675;9.536943;-1.250933;1.941699;0.032865;-0.031366;0.001230;-0.779053;-0.057373;0.412598;-0.066639;-0.616587;0.139505;-0.771957
28676;9.574878;-1.320280;1.915787;0.020275;-0.023995;-0.008763;-0.785156;-0.061523;0.415771;-0.066515;-0.616639;0.139450;-0.771936
28677;9.573460;-1.389047;1.902427;-0.000461;-0.027129;-0.016344;-0.773926;-0.062012;0.426270;-0.066534;-0.616701;0.139451;-0.771885
28678;9.583706;-1.488326;1.888789;-0.006924;-0.034589;-0.016578;-0.768555;-0.054443;0.423828;-0.066491;-0.617036;0.139379;-0.771634
28679;9.745716;-1.631481;1.836810;-0.026095;-0.040476;-0.005620;-0.778564;-0.053711;0.426758;-0.066357;-0.617394;0.139500;-0.771337
28680;9.758049;-1.615268;1.862814;-0.067150;-0.055744;0.022834;-0.779785;-0.056152;0.410645;-0.066048;-0.617752;0.139965;-0.770993
28681;9.600710;-1.659199;1.931832;-0.109905;-0.071797;0.045541;-0.775146;-0.057373;0.420898;-0.066259;-0.617903;0.141144;-0.770639
28682;9.407774;-1.796690;1.855511;0.015467;-0.064494;0.041170;-0.774658;-0.056885;0.416016;-0.065692;-0.618255;0.141339;-0.770369
28683;9.282253;-1.562527;1.934540;0.212113;-0.050545;0.012423;-0.775391;-0.051025;0.420166;-0.064457;-0.618574;0.140227;-0.770421
28684;9.281529;-1.207210;2.102302;0.310272;-0.024292;-0.018181;-0.770264;-0.055664;0.430908;-0.062725;-0.618855;0.138216;-0.770701
28685;9.401957;-0.923600;2.176943;0.247742;0.011705;-0.028295;-0.777344;-0.053467;0.427979;-0.061437;-0.619058;0.136426;-0.770961
28686;9.475934;-0.871486;1.976092;0.137118;0.028333;-0.027841;-0.778076;-0.054199;0.419434;-0.060719;-0.618994;0.135349;-0.771259
28687;9.444691;-0.883395;1.952577;0.079879;0.013670;-0.023830;-0.765869;-0.058594;0.422852;-0.060503;-0.618863;0.134812;-0.771475
28688;9.469711;-0.884719;2.096950;0.028987;-0.012788;-0.013294;-0.765625;-0.052979;0.418213;-0.060635;-0.619005;0.134687;-0.771373
28689;9.448166;-1.053464;2.257748;-0.043511;-0.029234;-0.000217;-0.772949;-0.044922;0.430176;-0.060983;-0.619133;0.135135;-0.771164
28690;9.484863;-1.197984;2.292913;-0.141584;-0.031454;0.026817;-0.776367;-0.049316;0.423096;-0.061098;-0.619314;0.136084;-0.770842
28691;9.543022;-1.362807;2.093251;-0.221989;-0.016384;0.034242;-0.767334;-0.053955;0.425293;-0.061841;-0.619204;0.137700;-0.770585
28692;9.789870;-1.722719;1.670455;-0.174914;-0.004999;0.028019;-0.778076;-0.055420;0.427002;-0.062535;-0.619144;0.139001;-0.770343
28693;9.692265;-1.644848;1.503816;-0.030528;-0.006583;0.025239;-0.780762;-0.054688;0.420410;-0.062379;-0.619125;0.139298;-0.770318
28694;9.719445;-1.401757;1.456897;0.063275;-0.011247;0.019109;-0.773926;-0.048096;0.421387;-0.061879;-0.619080;0.139057;-0.770438
28695;9.662858;-1.148845;1.519385;0.035285;-0.011686;0.002768;-0.773682;-0.052734;0.422852;-0.061506;-0.619113;0.138895;-0.770470
28696;9.603355;-1.048757;1.802540;-0.013121;-0.011582;-0.019197;-0.775391;-0.051758;0.422363;-0.061644;-0.619172;0.138939;-0.770404
28697;9.516619;-1.043410;2.000352;-0.048833;-0.001922;-0.037552;-0.774170;-0.051514;0.421143;-0.062063;-0.619153;0.139101;-0.770356
28698;9.425599;-1.111404;2.118062;-0.059133;0.003557;-0.039813;-0.777832;-0.057129;0.422852;-0.062566;-0.619088;0.139326;-0.770327
28699;9.484271;-1.225243;2.127098;-0.056454;0.009966;-0.038560;-0.763428;-0.058594;0.427246;-0.063125;-0.618980;0.139518;-0.770334
28700;9.523795;-1.355493;2.077508;-0.059391;0.009311;-0.030321;-0.783447;-0.058594;0.425781;-0.063686;-0.619032;0.139769;-0.770200
28701;9.578374;-1.477047;1.908002;-0.038770;0.015891;-0.024470;-0.780518;-0.062012;0.426514;-0.063959;-0.618883;0.139846;-0.770283
28702;9.614475;-1.562455;1.750961;-0.003585;0.018811;-0.025724;-0.772949;-0.055908;0.429688;-0.064142;-0.618772;0.139703;-0.770383
28703;9.570525;-1.499300;1.687223;0.037137;0.015962;-0.024057;-0.770020;-0.053711;0.424316;-0.063923;-0.618804;0.139272;-0.770454
28704;9.515295;-1.388624;1.723090;0.037877;0.004608;-0.019766;-0.778564;-0.044678;0.422852;-0.063728;-0.618849;0.138940;-0.770494
28705;9.521153;-1.308942;1.876070;0.008732;-0.008561;-0.014657;-0.771484;-0.064209;0.420410;-0.063376;-0.618878;0.138783;-0.770527
28706;9.583043;-1.302503;1.963160;0.004203;-0.008738;-0.007931;-0.776123;-0.060303;0.422607;-0.063616;-0.618912;0.138826;-0.770473
28707;9.554123;-1.250580;1.907223;0.025431;-0.005967;-0.004502;-0.766846;-0.060059;0.423584;-0.063542;-0.618935;0.138682;-0.770487
28708;9.481688;-1.206376;1.918218;0.022969;-0.012271;0.000339;-0.767334;-0.057373;0.420654;-0.063491;-0.619065;0.138608;-0.770399
28709;9.452051;-1.223887;1.923402;0.015607;-0.019548;0.000638;-0.777344;-0.062744;0.418457;-0.063452;-0.619189;0.138609;-0.770303
28710;9.576658;-1.329875;1.963777;0.012276;-0.019235;0.001026;-0.779297;-0.052490;0.427979;-0.063541;-0.619208;0.138636;-0.770276
28711;9.617551;-1.310389;1.852378;0.010468;-0.009519;-0.003729;-0.775146;-0.056396;0.425781;-0.063258;-0.619285;0.138503;-0.770261
28712;9.595179;-1.297922;1.815501;-0.016704;-0.002601;-0.010145;-0.772461;-0.046631;0.423340;-0.063331;-0.619307;0.138560;-0.770227
28713;9.550044;-1.340916;1.841693;-0.027095;0.003408;-0.013291;-0.774414;-0.057129;0.425781;-0.063287;-0.619272;0.138661;-0.770240
28714;9.500127;-1.307893;1.889784;-0.010964;0.005136;-0.011929;-0.770508;-0.059082;0.429443;-0.063367;-0.619257;0.138671;-0.770244
28715;9.443857;-1.268900;1.986114;0.008059;0.004047;-0.006073;-0.773193;-0.059082;0.427002;-0.063320;-0.619329;0.138572;-0.770208
28716;9.548940;-1.305845;1.974115;0.022229;0.003195;-0.000438;-0.776123;-0.055420;0.428223;-0.063185;-0.619354;0.138425;-0.770225
28717;9.615662;-1.240972;1.881499;0.002882;0.006504;-0.001252;-0.774414;-0.052979;0.429688;-0.063042;-0.619345;0.138366;-0.770255
28718;9.585654;-1.309417;1.855239;-0.048831;0.005735;-0.001429;-0.773682;-0.057617;0.424316;-0.063100;-0.619344;0.138624;-0.770204
28719;9.515139;-1.398444;1.937584;-0.071910;0.009198;0.003126;-0.780029;-0.058594;0.426514;-0.063443;-0.619238;0.139116;-0.770173
28720;9.502790;-1.421212;1.866815;-0.056217;0.010721;0.000913;-0.776611;-0.051514;0.427246;-0.063654;-0.619127;0.139446;-0.770185
28721;9.595643;-1.464265;1.885153;-0.015281;0.012098;0.003614;-0.770264;-0.059570;0.423584;-0.063489;-0.619055;0.139527;-0.770242
28722;9.571426;-1.404507;1.849889;0.041508;0.011575;0.005750;-0.772949;-0.060547;0.421631;-0.063287;-0.619011;0.139324;-0.770330
28723;9.561318;-1.219635;1.827486;0.040401;-0.000596;0.006713;-0.772461;-0.062500;0.430420;-0.063111;-0.619004;0.139149;-0.770382
28724;9.492163;-1.270850;1.914659;0.014444;-0.005434;0.000505;-0.767578;-0.045898;0.432617;-0.063021;-0.619145;0.139028;-0.770298
28725;9.531406;-1.304036;1.932213;0.012436;-0.008076;-0.003776;-0.773438;-0.054932;0.419434;-0.062630;-0.619345;0.138898;-0.770193
28726;9.608555;-1.338619;1.865570;0.024688;-0.002786;-0.007285;-0.781494;-0.047363;0.425049;-0.062563;-0.619315;0.138774;-0.770245
28727;9.565312;-1.360948;1.831329;0.036413;-0.007638;-0.005279;-0.769775;-0.050781;0.431396;-0.062137;-0.619340;0.138500;-0.770308
28728;9.525256;-1.310884;1.841736;0.034919;-0.010625;-0.005087;-0.775635;-0.049805;0.430908;-0.061761;-0.619541;0.138220;-0.770227
28729;9.430291;-1.321943;1.914648;0.019531;-0.015530;-0.003666;-0.784424;-0.052979;0.427734;-0.061415;-0.619716;0.138033;-0.770147
28730;9.509168;-1.354417;1.918509;0.017027;-0.010756;-0.001135;-0.777344;-0.063965;0.431396;-0.061133;-0.619765;0.137865;-0.770161
28731;9.598248;-1.369455;1.922242;0.029784;-0.006958;0.004055;-0.774414;-0.056641;0.426514;-0.060923;-0.619894;0.137599;-0.770121
28732;9.631360;-1.295709;1.858768;0.046147;-0.003950;0.007260;-0.775635;-0.062988;0.424805;-0.060602;-0.619945;0.137336;-0.770152
28733;9.562042;-1.229867;1.881390;0.016602;-0.007997;0.003041;-0.773926;-0.053955;0.430420;-0.060585;-0.619993;0.137235;-0.770133
28734;9.476781;-1.275907;1.883634;0.009774;-0.014458;0.003579;-0.775879;-0.051758;0.433838;-0.060375;-0.620144;0.137161;-0.770041
28735;9.457126;-1.311006;1.918912;0.005046;-0.018809;0.009272;-0.773438;-0.056396;0.421387;-0.060053;-0.620340;0.137111;-0.769917
28736;9.526782;-1.377884;1.893722;0.029113;-0.014810;0.012160;-0.777588;-0.051025;0.429199;-0.059893;-0.620374;0.137052;-0.769913
28737;9.611496;-1.334646;1.853223;0.038471;-0.004894;0.016129;-0.769287;-0.045166;0.424072;-0.059442;-0.620412;0.136862;-0.769951
28738;9.601863;-1.251442;1.760677;0.019642;0.003297;0.010489;-0.777100;-0.052246;0.427002;-0.059203;-0.620361;0.136878;-0.770008
28739;9.566681;-1.278585;1.787220;-0.013612;0.004655;0.002334;-0.777344;-0.049561;0.429932;-0.059194;-0.620307;0.136963;-0.770037
28740;9.578732;-1.257778;1.858246;-0.023690;0.004315;-0.009383;-0.779297;-0.054932;0.422363;-0.059227;-0.620296;0.137031;-0.770031
28741;9.517923;-1.361060;1.935578;-0.026138;0.000309;-0.013005;-0.770508;-0.048828;0.431152;-0.059465;-0.620220;0.137142;-0.770054
28742;9.604902;-1.412064;1.900078;-0.000394;0.007352;-0.012793;-0.770996;-0.049316;0.431152;-0.059417;-0.620256;0.137068;-0.770042
28743;9.556156;-1.325774;1.821540;0.027650;0.008402;-0.008380;-0.775146;-0.057129;0.433350;-0.059199;-0.620291;0.136833;-0.770072
28744;9.488998;-1.271203;1.852217;0.014791;0.002853;-0.005964;-0.767334;-0.057373;0.428223;-0.059064;-0.620375;0.136615;-0.770053
28745;9.529771;-1.300302;1.942986;-0.001507;0.003353;-0.013326;-0.782227;-0.050781;0.431641;-0.059201;-0.620431;0.136556;-0.770009
28746;9.621500;-1.426240;1.887290;-0.007038;0.010267;-0.020503;-0.770020;-0.054199;0.429932;-0.059179;-0.620402;0.136410;-0.770059
28747;9.589402;-1.411511;1.757688;0.016155;0.011566;-0.016308;-0.772217;-0.057617;0.423096;-0.059161;-0.620418;0.136202;-0.770085
28748;9.554935;-1.317189;1.756194;0.026374;0.001445;-0.005614;-0.780029;-0.050049;0.422607;-0.059136;-0.620406;0.136027;-0.770127
28749;9.539010;-1.192029;1.877011;0.022006;-0.009180;0.000082;-0.777344;-0.052490;0.431396;-0.058948;-0.620396;0.135913;-0.770170
28750;9.516198;-1.146773;2.005995;0.007789;-0.011841;-0.001403;-0.773438;-0.043701;0.429443;-0.058764;-0.620522;0.135804;-0.770101
28751;9.568360;-1.174337;2.028520;-0.000652;-0.007389;-0.012362;-0.774902;-0.055176;0.423584;-0.058670;-0.620600;0.135780;-0.770051
28752;9.506153;-1.296931;1.932577;-0.003391;-0.002754;-0.015914;-0.771729;-0.050537;0.425537;-0.058813;-0.620597;0.135731;-0.770050
28753;9.575217;-1.361656;1.873578;0.003499;-0.002099;-0.014846;-0.774902;-0.047607;0.435547;-0.058860;-0.620619;0.135671;-0.770040
28754;9.555026;-1.361377;1.844008;-0.008033;0.000532;-0.010876;-0.772461;-0.053467;0.429932;-0.058752;-0.620710;0.135616;-0.769984
28755;9.528356;-1.372726;1.761112;0.004115;-0.002963;-0.009501;-0.770020;-0.049561;0.425049;-0.058721;-0.620784;0.135520;-0.769943
28756;9.640634;-1.262516;1.873417;-0.004994;-0.000451;-0.005418;-0.776367;-0.051758;0.427246;-0.058767;-0.620777;0.135587;-0.769934
28757;9.502102;-1.265000;1.882523;-0.013445;0.000575;-0.003661;-0.778809;-0.055420;0.428711;-0.058786;-0.620760;0.135645;-0.769936
28758;9.545753;-1.240132;1.916104;-0.015211;-0.000794;-0.006101;-0.773926;-0.051025;0.423096;-0.058824;-0.620769;0.135651;-0.769925
28759;9.606160;-1.287069;1.898479;-0.015399;0.001422;-0.012092;-0.776367;-0.050049;0.433105;-0.058976;-0.620717;0.135733;-0.769941
28760;9.604457;-1.322327;1.858365;-0.016341;0.005661;-0.016632;-0.771973;-0.057617;0.425049;-0.059004;-0.620744;0.135702;-0.769922
28761;9.520608;-1.296636;1.835650;-0.011984;0.001708;-0.015830;-0.774902;-0.050537;0.421631;-0.059207;-0.620742;0.135698;-0.769909
28762;9.506553;-1.319589;1.890613;-0.018785;-0.000636;-0.011780;-0.772461;-0.050049;0.426758;-0.059368;-0.620681;0.135813;-0.769925
28763;9.509107;-1.331414;1.896425;-0.000354;-0.004875;-0.006218;-0.765625;-0.053711;0.426514;-0.059339;-0.620718;0.135816;-0.769898
28764;9.559174;-1.311825;1.881775;0.010618;-0.006547;-0.006987;-0.780518;-0.062012;0.429199;-0.059348;-0.620804;0.135769;-0.769836
28765;9.626361;-1.312768;1.886116;0.012490;0.000692;-0.008629;-0.773193;-0.059570;0.426025;-0.059302;-0.620829;0.135544;-0.769859
28766;9.616041;-1.228037;1.757424;0.005070;-0.000788;-0.009921;-0.775635;-0.054443;0.436279;-0.059368;-0.620852;0.135440;-0.769854
28767;9.529097;-1.208468;1.823905;-0.023123;-0.004866;-0.011047;-0.767822;-0.052246;0.428467;-0.059404;-0.620977;0.135462;-0.769746
28768;9.484557;-1.234643;1.950108;-0.044619;-0.007211;-0.012857;-0.778320;-0.055664;0.429688;-0.059683;-0.621050;0.135725;-0.769619
28769;9.510486;-1.307920;1.956994;-0.053362;0.001818;-0.018671;-0.775146;-0.052734;0.430908;-0.059986;-0.621043;0.135917;-0.769567
28770;9.603727;-1.399491;1.904415;-0.046165;0.010253;-0.012178;-0.780518;-0.056885;0.429443;-0.060202;-0.620996;0.136125;-0.769551
28771;9.629590;-1.404358;1.851120;-0.012690;0.010213;-0.010765;-0.766113;-0.055420;0.427246;-0.060235;-0.620939;0.136074;-0.769604
28772;9.536673;-1.259079;1.741136;0.001660;0.005345;-0.011131;-0.773926;-0.057617;0.429932;-0.060320;-0.620950;0.136054;-0.769592
28773;9.497608;-1.240920;1.855441;-0.010101;-0.000371;-0.011695;-0.773682;-0.055664;0.427490;-0.060386;-0.620997;0.136025;-0.769554
28774;9.459332;-1.238883;1.903563;-0.027039;-0.002491;-0.011675;-0.778320;-0.052979;0.416504;-0.060548;-0.621018;0.136137;-0.769504
28775;9.576552;-1.305977;1.890853;-0.026843;0.001697;-0.010635;-0.771484;-0.056152;0.430908;-0.060763;-0.620874;0.136307;-0.769574
28776;9.677382;-1.316431;1.865247;-0.022984;0.007473;-0.011505;-0.775391;-0.055908;0.429199;-0.060899;-0.620878;0.136383;-0.769546
28777;9.542998;-1.277277;1.789423;-0.020478;0.002700;-0.014031;-0.775635;-0.056396;0.432129;-0.061014;-0.620885;0.136420;-0.769525
28778;9.469404;-1.251980;1.897436;-0.022723;-0.003540;-0.011674;-0.776123;-0.052979;0.430664;-0.061089;-0.620957;0.136466;-0.769452
28779;9.435643;-1.310731;1.989021;-0.012916;-0.005671;-0.006128;-0.773926;-0.056396;0.434570;-0.061061;-0.621016;0.136508;-0.769400
28780;9.539140;-1.265574;1.907073;-0.007339;0.005533;-0.009580;-0.774658;-0.053955;0.423340;-0.061040;-0.621062;0.136458;-0.769373
28781;9.632724;-1.287747;1.792924;-0.020143;0.008708;-0.012025;-0.772217;-0.052734;0.428711;-0.061198;-0.620963;0.136558;-0.769423
28782;9.615132;-1.350980;1.736529;-0.016430;0.006245;-0.008910;-0.775635;-0.051025;0.427979;-0.061269;-0.620940;0.136643;-0.769421
28783;9.579289;-1.277443;1.830552;-0.032336;0.000464;-0.007713;-0.776123;-0.058350;0.427979;-0.061375;-0.620922;0.136832;-0.769393
28784;9.498114;-1.334306;1.911517;-0.025863;-0.000213;-0.006009;-0.773926;-0.062256;0.434570;-0.061476;-0.620925;0.136936;-0.769364
28785;9.557474;-1.282238;1.961841;-0.020767;0.000853;-0.003955;-0.773193;-0.053223;0.422852;-0.061513;-0.621002;0.136967;-0.769294
28786;9.656715;-1.313091;1.996336;-0.031023;0.002772;-0.013070;-0.772705;-0.053467;0.432617;-0.061735;-0.620936;0.137157;-0.769295
28787;9.612460;-1.387836;1.856972;-0.001309;0.011084;-0.016380;-0.772949;-0.058105;0.421631;-0.061740;-0.620934;0.137080;-0.769310
28788;9.588599;-1.256382;1.758757;0.013115;0.003347;-0.015982;-0.767578;-0.059326;0.425049;-0.061789;-0.620893;0.136945;-0.769363
28789;9.444769;-1.267292;1.750421;0.009213;-0.005958;-0.010977;-0.773193;-0.057617;0.426025;-0.061834;-0.620959;0.136874;-0.769319
28790;9.431290;-1.171337;1.812055;0.002030;-0.012601;-0.005499;-0.774902;-0.052490;0.428955;-0.061805;-0.621043;0.136849;-0.769258
28791;9.574997;-1.210522;1.945954;-0.018878;-0.009469;-0.006888;-0.767334;-0.048096;0.429199;-0.061828;-0.621107;0.136956;-0.769186
28792;9.601951;-1.298937;1.887125;-0.004839;-0.004503;-0.011397;-0.775146;-0.063232;0.427979;-0.061843;-0.621168;0.137021;-0.769124
28793;9.608539;-1.303131;1.838767;-0.008599;-0.000293;-0.011067;-0.774414;-0.057129;0.430176;-0.061924;-0.621193;0.136970;-0.769106
28794;9.555015;-1.412861;1.867383;0.000310;-0.001066;-0.009262;-0.774658;-0.052490;0.421631;-0.061896;-0.621235;0.136906;-0.769086
28795;9.485193;-1.363457;1.789268;0.021765;-0.005680;0.000802;-0.766602;-0.060059;0.418213;-0.061725;-0.621216;0.136826;-0.769129
28796;9.554140;-1.277530;1.903840;0.026241;-0.010156;0.002454;-0.775879;-0.060547;0.420654;-0.061655;-0.621238;0.136749;-0.769130
28797;9.583498;-1.259911;1.859939;0.014377;-0.004826;-0.000393;-0.770264;-0.056641;0.423096;-0.061579;-0.621216;0.136652;-0.769171
28798;9.595498;-1.221200;1.798117;-0.000584;-0.002031;-0.004539;-0.772949;-0.057617;0.423584;-0.061609;-0.621207;0.136672;-0.769173
28799;9.617670;-1.233044;1.797776;-0.023832;0.001813;-0.009384;-0.779297;-0.055908;0.433350;-0.061776;-0.621165;0.136790;-0.769172
28800;9.508397;-1.253187;1.794461;-0.019794;-0.002867;-0.011312;-0.767334;-0.046875;0.423584;-0.061809;-0.621219;0.136815;-0.769122
28801;9.514297;-1.277021;1.841666;-0.015547;-0.009778;-0.007269;-0.774658;-0.062012;0.436035;-0.061860;-0.621253;0.136978;-0.769062
28802;9.554849;-1.377628;1.956000;0.004519;-0.011495;-0.001082;-0.773682;-0.058105;0.430176;-0.061759;-0.621409;0.136900;-0.768957
28803;9.640034;-1.381457;1.881498;0.027391;-0.003785;0.003073;-0.768799;-0.053467;0.436035;-0.061531;-0.621466;0.136731;-0.768960
28804;9.607135;-1.233187;1.823913;0.027654;0.002166;-0.003457;-0.771484;-0.043701;0.430908;-0.061320;-0.621549;0.136556;-0.768940
28805;9.518276;-1.182472;1.788935;0.022783;-0.001745;-0.007186;-0.771240;-0.052490;0.422852;-0.061099;-0.621588;0.136439;-0.768947
28806;9.476835;-1.202906;1.826229;0.010019;-0.006766;-0.008119;-0.768066;-0.060547;0.430420;-0.061057;-0.621602;0.136382;-0.768949
28807;9.558193;-1.281515;1.868488;0.008406;-0.002193;-0.006083;-0.768555;-0.050537;0.424805;-0.061055;-0.621672;0.136303;-0.768907
28808;9.596877;-1.280616;1.819817;0.013212;0.000500;-0.006659;-0.773682;-0.053711;0.427979;-0.060984;-0.621661;0.136243;-0.768932
28809;9.652858;-1.266446;1.758360;0.005599;-0.001080;-0.005463;-0.774902;-0.049316;0.432861;-0.060916;-0.621671;0.136185;-0.768939
28810;9.553136;-1.287532;1.850972;0.000695;-0.003235;-0.005761;-0.773682;-0.052490;0.433350;-0.060808;-0.621722;0.136158;-0.768911
28811;9.497522;-1.265106;1.880946;0.002500;-0.003618;-0.006756;-0.772461;-0.058350;0.426758;-0.060727;-0.621790;0.136106;-0.768872
28812;9.604831;-1.383380;1.900303;0.018395;-0.003084;-0.007250;-0.774902;-0.057129;0.434082;-0.060654;-0.621821;0.135948;-0.768881
28813;9.573476;-1.282878;1.844042;0.044581;-0.000938;-0.002771;-0.775146;-0.053955;0.427246;-0.060356;-0.621897;0.135617;-0.768902
28814;9.542078;-1.182720;1.787612;0.035589;-0.006052;-0.000507;-0.775391;-0.056641;0.431885;-0.060098;-0.621935;0.135386;-0.768931
28815;9.546328;-1.158093;1.833806;0.013992;-0.009086;0.001061;-0.775391;-0.051025;0.431885;-0.059934;-0.622022;0.135276;-0.768893
28816;9.511110;-1.186025;1.822462;-0.005520;-0.007703;-0.000684;-0.775635;-0.055664;0.423340;-0.059848;-0.622082;0.135305;-0.768847
28817;9.577631;-1.325972;1.914842;-0.001356;-0.004145;-0.006591;-0.771729;-0.057617;0.428223;-0.059858;-0.622065;0.135275;-0.768865
28818;9.627215;-1.322824;1.799774;0.022004;0.000261;-0.005723;-0.771240;-0.056396;0.431152;-0.059759;-0.622085;0.135098;-0.768887
28819;9.585577;-1.275000;1.775416;0.022675;-0.002366;-0.003821;-0.770996;-0.044922;0.426025;-0.059623;-0.622143;0.134929;-0.768881
28820;9.541001;-1.233170;1.840648;0.016068;-0.004675;-0.002247;-0.765625;-0.060303;0.432617;-0.059462;-0.622151;0.134874;-0.768896
28821;9.569689;-1.233970;1.893220;-0.001061;-0.005763;-0.003963;-0.769775;-0.056885;0.431396;-0.059509;-0.622252;0.134870;-0.768811
28822;9.621830;-1.346812;1.877934;0.002869;0.000629;-0.008192;-0.773682;-0.057373;0.427246;-0.059524;-0.622290;0.134809;-0.768790
28823;9.570629;-1.332463;1.789154;0.029128;-0.001888;-0.006344;-0.771973;-0.048584;0.431152;-0.059383;-0.622312;0.134574;-0.768825
28824;9.600832;-1.226868;1.820423;0.030798;-0.005246;-0.004060;-0.765381;-0.054443;0.432861;-0.059151;-0.622374;0.134379;-0.768826
28825;9.559282;-1.178881;1.795444;0.017848;-0.003925;-0.007459;-0.771973;-0.052246;0.437500;-0.059089;-0.622466;0.134258;-0.768778
28826;9.610844;-1.241257;1.814053;-0.003126;-0.005533;-0.009018;-0.772705;-0.061768;0.427002;-0.059070;-0.622571;0.134229;-0.768699
28827;9.651358;-1.323398;1.797318;0.016869;-0.009602;-0.002888;-0.771484;-0.052979;0.428467;-0.058998;-0.622638;0.134078;-0.768677
28828;9.545685;-1.355302;1.835165;0.061491;-0.026284;0.005070;-0.764160;-0.052002;0.435059;-0.058572;-0.622824;0.133731;-0.768620
28829;9.501119;-1.382658;1.924195;0.133917;-0.040713;0.015695;-0.767578;-0.057617;0.435791;-0.057708;-0.623191;0.133016;-0.768511
28830;9.521843;-1.294762;1.952671;0.165844;-0.042515;0.021693;-0.777588;-0.053223;0.434082;-0.056660;-0.623576;0.132082;-0.768438
28831;9.559285;-1.364994;1.892967;0.164334;-0.030335;0.020674;-0.771729;-0.051758;0.435547;-0.055558;-0.623830;0.131102;-0.768480
28832;9.687740;-1.377462;1.686418;0.148487;-0.016302;0.012234;-0.768555;-0.050781;0.441162;-0.054642;-0.624018;0.130203;-0.768546
28833;9.632844;-1.352271;1.556488;0.107173;-0.001150;-0.000496;-0.776123;-0.046631;0.435059;-0.054045;-0.624150;0.129508;-0.768599
28834;9.557269;-1.260111;1.531879;0.061284;0.002666;-0.010247;-0.772217;-0.049072;0.438965;-0.053701;-0.624175;0.129029;-0.768683
28835;9.418981;-1.191786;1.676624;0.032635;-0.006423;-0.015053;-0.766602;-0.051025;0.435547;-0.053555;-0.624295;0.128719;-0.768648
28836;9.515153;-1.156094;1.899386;0.019855;-0.006723;-0.013377;-0.771729;-0.045898;0.430420;-0.053524;-0.624402;0.128526;-0.768595
28837;9.492951;-1.055732;2.097859;0.022236;-0.004362;-0.002197;-0.778076;-0.042725;0.444580;-0.053365;-0.624423;0.128372;-0.768615
28838;9.474281;-1.019871;2.107920;0.014314;-0.005992;0.003944;-0.775391;-0.045654;0.441895;-0.053111;-0.624520;0.128268;-0.768571
28839;9.615649;-1.166018;2.033481;-0.005929;-0.003091;0.006915;-0.771729;-0.040771;0.440186;-0.052982;-0.624579;0.128304;-0.768526
28840;9.619205;-1.230305;1.844890;-0.012998;0.002561;0.003322;-0.772217;-0.052002;0.439209;-0.052933;-0.624590;0.128413;-0.768502
28841;9.585229;-1.376865;1.703823;-0.013918;-0.001399;0.000347;-0.777588;-0.051758;0.435791;-0.052937;-0.624643;0.128444;-0.768454
28842;9.623534;-1.378530;1.654730;0.006970;0.000146;0.001944;-0.773193;-0.048340;0.435059;-0.052792;-0.624656;0.128318;-0.768474
28843;9.538533;-1.305439;1.665330;0.019941;-0.000624;0.002034;-0.778076;-0.051514;0.439209;-0.052603;-0.624679;0.128160;-0.768495
28844;9.495257;-1.175514;1.803219;0.001194;-0.001794;0.002149;-0.768066;-0.050293;0.437988;-0.052460;-0.624725;0.128060;-0.768484
28845;9.598811;-1.181180;1.884797;-0.030894;0.008672;-0.006297;-0.757568;-0.048096;0.445557;-0.052628;-0.624713;0.128192;-0.768460
28846;9.570761;-1.264556;1.831064;-0.042751;0.011646;-0.009291;-0.774658;-0.042725;0.441406;-0.052925;-0.624752;0.128459;-0.768363
28847;9.672819;-1.324465;1.808450;-0.033074;0.010079;-0.004584;-0.763428;-0.052979;0.439697;-0.053017;-0.624718;0.128621;-0.768358
28848;9.576935;-1.288341;1.719760;0.000347;0.000772;0.002698;-0.772461;-0.051270;0.439209;-0.052985;-0.624787;0.128618;-0.768304
28849;9.581550;-1.211600;1.834818;0.007298;-0.008505;0.001933;-0.776855;-0.048096;0.436035;-0.052837;-0.624892;0.128518;-0.768246
28850;9.457842;-1.206552;1.920553;0.013400;-0.009949;0.000957;-0.770264;-0.046631;0.439453;-0.052635;-0.624970;0.128370;-0.768221
28851;9.590260;-1.127998;1.893823;-0.010781;-0.002443;-0.005201;-0.770264;-0.047363;0.429199;-0.052645;-0.625029;0.128393;-0.768168
28852;9.590799;-1.263040;1.823341;-0.016954;0.007595;-0.017692;-0.773682;-0.044922;0.435059;-0.052828;-0.624965;0.128403;-0.768206
28853;9.605283;-1.253255;1.703485;-0.009135;0.005175;-0.016299;-0.764160;-0.041992;0.441895;-0.052901;-0.624946;0.128354;-0.768225
28854;9.548080;-1.301151;1.725941;0.002867;-0.000551;-0.003955;-0.768799;-0.048828;0.432861;-0.052875;-0.625017;0.128375;-0.768165
28855;9.522663;-1.208172;1.817279;0.000601;-0.003871;-0.002370;-0.768555;-0.042969;0.436279;-0.052849;-0.625049;0.128351;-0.768145
28856;9.610582;-1.241046;1.882257;-0.018381;0.002383;-0.009006;-0.765381;-0.044678;0.436035;-0.052959;-0.625050;0.128452;-0.768119
28857;9.621934;-1.289034;1.783246;-0.008197;0.008021;-0.009082;-0.766113;-0.047607;0.437012;-0.053049;-0.625028;0.128496;-0.768124
28858;9.637921;-1.243102;1.703747;-0.004713;0.008436;-0.004287;-0.772949;-0.053223;0.436279;-0.053083;-0.625012;0.128515;-0.768132
28859;9.579234;-1.191254;1.793039;-0.013251;0.000561;-0.006136;-0.768311;-0.053223;0.439209;-0.053112;-0.625037;0.128491;-0.768113
28860;9.508862;-1.109069;1.880034;-0.033258;-0.001209;-0.008218;-0.776123;-0.048584;0.438965;-0.053283;-0.625096;0.128617;-0.768032
28861;9.519711;-1.158225;1.941268;-0.053773;-0.000326;-0.014686;-0.778076;-0.051025;0.441406;-0.053534;-0.625118;0.128815;-0.767964
28862;9.555007;-1.267113;1.843738;-0.045270;0.008656;-0.017054;-0.771240;-0.046387;0.432617;-0.053733;-0.625106;0.128904;-0.767945
28863;9.633473;-1.315983;1.749133;-0.026708;0.010925;-0.018931;-0.777588;-0.048340;0.440186;-0.053954;-0.625034;0.128976;-0.767976
28864;9.630235;-1.302765;1.707605;-0.018205;0.005900;-0.015629;-0.771484;-0.044922;0.440430;-0.054008;-0.625037;0.128932;-0.767977
28865;9.583407;-1.246801;1.765798;-0.028243;-0.003190;-0.013860;-0.776611;-0.051514;0.438477;-0.054149;-0.625097;0.129043;-0.767900
28866;9.559262;-1.271622;1.886115;-0.042810;-0.004918;-0.014598;-0.775146;-0.051758;0.433105;-0.054321;-0.625155;0.129151;-0.767822
28867;9.541054;-1.354638;1.889512;-0.024816;-0.000548;-0.017518;-0.774902;-0.055908;0.432373;-0.054464;-0.625162;0.129155;-0.767805
28868;9.553521;-1.279785;1.831300;-0.009851;-0.000954;-0.013265;-0.765381;-0.050781;0.435059;-0.054500;-0.625180;0.129056;-0.767805
28869;9.512811;-1.315921;1.804397;0.007178;0.003038;-0.012347;-0.767090;-0.053467;0.435791;-0.054535;-0.625199;0.128973;-0.767800
28870;9.543395;-1.173817;1.839357;0.003612;0.002038;-0.013784;-0.764648;-0.051025;0.443359;-0.054571;-0.625233;0.128866;-0.767788
28871;9.559465;-1.229439;1.818204;-0.014632;0.005104;-0.017585;-0.768066;-0.045898;0.433350;-0.054711;-0.625291;0.128871;-0.767730
28872;9.582303;-1.255796;1.753771;-0.016112;0.007379;-0.018124;-0.771729;-0.052246;0.429199;-0.054903;-0.625248;0.128934;-0.767741
28873;9.669539;-1.374742;1.746107;-0.009202;0.006960;-0.012840;-0.777588;-0.052734;0.425781;-0.055000;-0.625189;0.128907;-0.767787
28874;9.641677;-1.336273;1.698294;0.028928;0.003886;-0.007911;-0.764404;-0.049805;0.440430;-0.054823;-0.625130;0.128620;-0.767895
28875;9.645565;-1.275523;1.714325;0.043631;-0.001960;-0.008954;-0.774414;-0.059326;0.441650;-0.054623;-0.625229;0.128331;-0.767878
28876;9.545279;-1.210074;1.809520;0.037988;-0.011514;-0.010532;-0.773438;-0.056885;0.438721;-0.054332;-0.625401;0.127905;-0.767830
28877;9.550257;-1.216544;1.886322;0.005838;-0.011701;-0.017396;-0.771484;-0.048096;0.432373;-0.054275;-0.625543;0.127679;-0.767756
28878;9.503364;-1.281072;1.901156;-0.005841;-0.009829;-0.018615;-0.770264;-0.051025;0.436523;-0.054370;-0.625607;0.127638;-0.767704
28879;9.457035;-1.310138;1.920566;0.010064;-0.008043;-0.014792;-0.770264;-0.051025;0.446777;-0.054337;-0.625697;0.127486;-0.767657
28880;9.513363;-1.328895;1.889844;0.046607;-0.004143;-0.007796;-0.770020;-0.045654;0.433594;-0.054006;-0.625837;0.127095;-0.767631
28881;9.548211;-1.230126;1.836770;0.070229;-0.004224;-0.003457;-0.768311;-0.058105;0.434570;-0.053629;-0.625884;0.126674;-0.767689
28882;9.561554;-1.187154;1.846950;0.062714;-0.004552;0.002040;-0.770752;-0.051758;0.441406;-0.053233;-0.625963;0.126229;-0.767726
28883;9.577894;-1.121784;1.867858;0.037437;0.001219;-0.004529;-0.767334;-0.046631;0.440918;-0.052959;-0.626027;0.125909;-0.767745
28884;9.590945;-1.184039;1.740244;0.005722;0.008333;-0.005192;-0.770752;-0.052979;0.431885;-0.052915;-0.626021;0.125860;-0.767761
28885;9.582191;-1.216111;1.713553;-0.011992;0.008732;-0.004629;-0.768066;-0.043701;0.438965;-0.052968;-0.625956;0.125876;-0.767807
28886;9.547711;-1.242352;1.740720;-0.021703;0.006782;-0.005148;-0.773438;-0.059326;0.434570;-0.053079;-0.625928;0.126031;-0.767797
28887;9.539781;-1.290346;1.845720;-0.018604;0.004067;-0.003112;-0.777100;-0.040039;0.439209;-0.053088;-0.625919;0.126011;-0.767807
28888;9.579353;-1.271152;1.933950;-0.008690;0.004955;-0.000834;-0.766113;-0.043701;0.433350;-0.053012;-0.625884;0.126052;-0.767834
28889;9.577215;-1.223268;1.932318;-0.005953;0.007417;0.005386;-0.773926;-0.047119;0.440186;-0.053038;-0.625815;0.126207;-0.767864
28890;9.571928;-1.250248;1.851437;0.008459;0.010797;0.001034;-0.773926;-0.045654;0.431152;-0.052876;-0.625777;0.126109;-0.767922
28891;9.661415;-1.211625;1.765475;0.009989;0.015048;0.005114;-0.775879;-0.047363;0.431396;-0.052748;-0.625649;0.126069;-0.768041
28892;9.565751;-1.243339;1.742054;0.015229;0.012029;0.001222;-0.771240;-0.054688;0.439209;-0.052586;-0.625552;0.125940;-0.768153
28893;9.531992;-1.164586;1.746136;0.008190;0.001857;-0.000082;-0.772949;-0.054932;0.441162;-0.052437;-0.625593;0.125805;-0.768152
28894;9.502512;-1.267828;1.914247;-0.002590;0.000060;0.002355;-0.769775;-0.043457;0.439697;-0.052288;-0.625649;0.125721;-0.768130
28895;9.537641;-1.240000;1.924315;0.013962;0.004503;0.007356;-0.767822;-0.050049;0.431641;-0.052105;-0.625646;0.125688;-0.768150
28896;9.641043;-1.177672;1.782330;0.010985;0.014317;0.005501;-0.766846;-0.044189;0.442383;-0.052025;-0.625547;0.125663;-0.768240
28897;9.669684;-1.195522;1.773099;0.000837;0.016283;0.004870;-0.761230;-0.060303;0.433105;-0.051949;-0.625490;0.125703;-0.768285
28898;9.586032;-1.154859;1.691291;-0.007565;0.011330;-0.000276;-0.768555;-0.049561;0.436279;-0.052035;-0.625453;0.125740;-0.768304
28899;9.543889;-1.194046;1.827409;-0.015797;0.007108;-0.000257;-0.774902;-0.047119;0.439209;-0.052081;-0.625426;0.125832;-0.768308
28900;9.521828;-1.215959;1.859827;-0.007722;0.006020;0.002955;-0.776611;-0.047852;0.436768;-0.051975;-0.625411;0.125833;-0.768326
28901;9.624211;-1.275748;1.837448;0.003884;0.007042;0.003382;-0.775391;-0.046631;0.439941;-0.051801;-0.625381;0.125745;-0.768378
28902;9.706495;-1.249466;1.859592;0.006833;0.011229;-0.000443;-0.766846;-0.051025;0.439941;-0.051631;-0.625348;0.125622;-0.768436
28903;9.634831;-1.204219;1.746965;0.005522;0.009390;-0.006934;-0.768799;-0.042725;0.441162;-0.051594;-0.625353;0.125524;-0.768450
28904;9.531787;-1.213415;1.798922;-0.000507;0.002652;-0.004390;-0.767822;-0.049316;0.443848;-0.051561;-0.625383;0.125525;-0.768428
28905;9.505929;-1.206643;1.853299;0.008526;-0.001528;-0.000851;-0.772949;-0.045166;0.443359;-0.051421;-0.625473;0.125428;-0.768380
28906;9.465307;-1.123392;1.867859;0.010214;-0.000706;0.004926;-0.767090;-0.041992;0.443115;-0.051191;-0.625533;0.125331;-0.768362
28907;9.600972;-1.175133;1.879895;-0.001222;0.007051;-0.002900;-0.775146;-0.048096;0.440430;-0.051165;-0.625543;0.125353;-0.768352
28908;9.648943;-1.245271;1.758299;-0.003688;0.013524;-0.008003;-0.770020;-0.051514;0.447754;-0.051086;-0.625507;0.125231;-0.768407
28909;9.643906;-1.218304;1.746697;-0.017196;0.009266;-0.011799;-0.778320;-0.044189;0.438721;-0.051074;-0.625558;0.125151;-0.768379
28910;9.510525;-1.281638;1.801875;-0.029918;0.006025;-0.009327;-0.772949;-0.044189;0.437500;-0.051121;-0.625538;0.125203;-0.768383
28911;9.520746;-1.244853;1.901625;-0.026619;0.002249;-0.005532;-0.772217;-0.042725;0.432861;-0.051204;-0.625536;0.125326;-0.768360
28912;9.516874;-1.250833;1.956462;-0.017036;0.009992;-0.006623;-0.765625;-0.046387;0.430420;-0.051322;-0.625454;0.125440;-0.768400
28913;9.593395;-1.218369;1.828837;-0.024937;0.015274;-0.008829;-0.771973;-0.042480;0.433350;-0.051589;-0.625338;0.125643;-0.768443
28914;9.630752;-1.220519;1.746536;-0.037058;0.021047;-0.010166;-0.771973;-0.046631;0.432861;-0.051839;-0.625186;0.125859;-0.768514
28915;9.518422;-1.195475;1.707868;-0.055736;0.015097;-0.012665;-0.774658;-0.056641;0.439453;-0.052178;-0.625077;0.126148;-0.768533
28916;9.467695;-1.267816;1.814887;-0.060753;0.006500;-0.005511;-0.779541;-0.052246;0.439697;-0.052347;-0.625078;0.126349;-0.768488
28917;9.519758;-1.278618;1.939531;-0.055244;0.003676;-0.003350;-0.771484;-0.059570;0.431641;-0.052419;-0.625084;0.126510;-0.768451
28918;9.587275;-1.366657;1.905974;-0.031456;0.004789;-0.005675;-0.764404;-0.052002;0.432129;-0.052529;-0.625070;0.126583;-0.768443
28919;9.590051;-1.431002;1.843537;0.010213;0.003899;-0.003460;-0.772217;-0.054688;0.428223;-0.052548;-0.625062;0.126566;-0.768451
28920;9.663893;-1.402034;1.805471;0.030716;0.000052;-0.004676;-0.774658;-0.057129;0.439209;-0.052381;-0.625067;0.126321;-0.768499
28921;9.557245;-1.331771;1.751011;0.030814;-0.004632;-0.007278;-0.764404;-0.046631;0.440674;-0.052062;-0.625181;0.125928;-0.768492
28922;9.502604;-1.341247;1.847747;0.016030;-0.012289;-0.001490;-0.772217;-0.042236;0.434814;-0.051957;-0.625319;0.125876;-0.768396
28923;9.505058;-1.389115;1.847896;0.006757;-0.018164;-0.001934;-0.776367;-0.049316;0.436523;-0.051880;-0.625435;0.125878;-0.768306
28924;9.613312;-1.542367;1.861843;-0.001330;-0.021239;-0.008617;-0.766357;-0.049561;0.438721;-0.051765;-0.625601;0.125763;-0.768198
28925;9.752632;-1.813772;1.760250;0.027003;-0.031623;-0.011923;-0.767578;-0.048828;0.445557;-0.051630;-0.625866;0.125558;-0.768024
28926;9.863167;-2.048826;1.770528;0.088545;-0.050677;-0.006363;-0.773438;-0.043701;0.435059;-0.051033;-0.626312;0.124937;-0.767802
28927;9.750711;-2.110859;1.776503;0.173669;-0.080381;0.005139;-0.764160;-0.046875;0.437500;-0.049948;-0.626882;0.123904;-0.767575
28928;9.657953;-2.189872;1.871524;0.260051;-0.111149;0.032669;-0.772217;-0.048340;0.443115;-0.048287;-0.627679;0.122529;-0.767251
28929;9.504785;-2.189093;1.985597;0.284989;-0.138946;0.077496;-0.771484;-0.040527;0.444092;-0.045990;-0.628644;0.121064;-0.766835
28930;9.403286;-2.221655;1.923548;0.303436;-0.163733;0.087004;-0.771973;-0.031982;0.449951;-0.043542;-0.629740;0.119591;-0.766309
28931;9.361223;-2.268667;1.937363;0.360805;-0.182207;0.087089;-0.760254;-0.033691;0.450928;-0.040738;-0.630975;0.117759;-0.765731
28932;9.241116;-2.159374;2.110941;0.377768;-0.183111;0.095845;-0.763428;-0.040039;0.454834;-0.037923;-0.632215;0.115957;-0.765128
28933;8.988621;-2.078676;2.434415;0.289052;-0.183584;0.113565;-0.769287;-0.026123;0.460938;-0.035317;-0.633435;0.114642;-0.764441
28934;8.768080;-2.427680;2.526368;0.168415;-0.177581;0.138357;-0.760986;-0.025146;0.458984;-0.033098;-0.634547;0.114192;-0.763685
28935;8.764383;-2.623459;2.529323;0.019972;-0.128665;0.191210;-0.762695;-0.023193;0.458252;-0.031514;-0.635234;0.115064;-0.763050
28936;8.781841;-2.772918;2.647200;-0.235685;-0.029099;0.317747;-0.765869;-0.022949;0.460693;-0.030562;-0.635078;0.118191;-0.762740
28937;8.646524;-3.391391;2.847309;-0.407715;0.079347;0.447227;-0.764893;-0.010986;0.451416;-0.029702;-0.634070;0.122975;-0.762857
28938;8.835579;-3.735598;2.897759;-0.469060;0.199711;0.567925;-0.770752;-0.008301;0.455322;-0.028744;-0.632053;0.128982;-0.763575
28939;9.266141;-4.354057;2.625585;-0.449875;0.336612;0.678673;-0.775635;-0.018311;0.450195;-0.026938;-0.629070;0.135261;-0.765016
28940;9.975224;-4.958936;2.457472;-0.345529;0.459541;0.814145;-0.771973;0.001221;0.448486;-0.023716;-0.625181;0.141368;-0.767204
28941;10.642662;-5.232147;2.569563;-0.192249;0.572456;1.000679;-0.777100;0.009766;0.437988;-0.018760;-0.620324;0.147616;-0.770102
28942;11.180756;-4.797630;2.937846;-0.153181;0.673096;1.166976;-0.782715;0.027100;0.434082;-0.012669;-0.614540;0.154444;-0.773516
28943;11.284964;-3.907198;3.281021;-0.475253;0.755473;1.325126;-0.785889;0.042969;0.417236;-0.007214;-0.607927;0.164077;-0.776821
28944;10.748309;-3.982554;3.420916;-1.000775;0.789142;1.538849;-0.796387;0.054932;0.399170;-0.003265;-0.600564;0.178305;-0.779436
28945;9.965124;-3.859397;3.432496;-1.537332;0.761805;1.802655;-0.795898;0.071045;0.386719;-0.000262;-0.592703;0.197259;-0.780892
28946;9.115327;-4.207643;3.033277;-1.985463;0.702325;2.091358;-0.799805;0.089355;0.379639;0.002335;-0.584377;0.220591;-0.780921
28947;8.578236;-5.127376;2.763269;-2.021139;0.572942;2.357934;-0.804199;0.112549;0.382324;0.006784;-0.576007;0.245273;-0.779751
28948;8.859281;-5.558728;2.615552;-1.777016;0.453982;2.548825;-0.800781;0.141602;0.379395;0.014118;-0.567684;0.268968;-0.777941
28949;9.146230;-6.178447;2.449189;-1.374696;0.362964;2.646277;-0.806885;0.164307;0.367188;0.024143;-0.559265;0.290399;-0.776085
28950;9.267439;-6.484634;2.291558;-0.921842;0.305749;2.659521;-0.806885;0.201660;0.373779;0.036601;-0.550746;0.308603;-0.774664
28951;9.173413;-6.363163;2.152575;-0.489605;0.282533;2.560663;-0.802979;0.237793;0.370605;0.050700;-0.542324;0.323268;-0.773829
28952;8.800274;-5.918962;2.133591;-0.254910;0.260639;2.391149;-0.792236;0.265625;0.361328;0.064712;-0.534157;0.335576;-0.773225
28953;8.249057;-5.442094;2.169979;-0.308483;0.231140;2.194357;-0.787109;0.294678;0.362549;0.076953;-0.526517;0.347419;-0.772112
28954;7.469981;-5.471630;2.224639;-0.506498;0.195222;1.986649;-0.775879;0.317139;0.359375;0.087017;-0.519709;0.359534;-0.770108
28955;6.816036;-5.806996;2.193611;-0.617429;0.170950;1.791140;-0.779541;0.337402;0.361816;0.095355;-0.513574;0.371422;-0.767590
28956;6.297760;-6.117908;1.943246;-0.562118;0.158105;1.614317;-0.767822;0.358887;0.350098;0.102818;-0.507908;0.382100;-0.765151
28957;5.793374;-6.220376;1.749188;-0.362439;0.151644;1.464356;-0.761719;0.371094;0.361572;0.110171;-0.502494;0.390795;-0.763309
28958;5.385987;-6.094905;1.609996;-0.111211;0.146072;1.346326;-0.760742;0.398682;0.361816;0.117826;-0.497195;0.397338;-0.762258
28959;5.065380;-5.618991;1.678085;0.072236;0.136577;1.237552;-0.751465;0.406006;0.354248;0.125501;-0.492040;0.402249;-0.761802
28960;4.852426;-5.013387;1.731628;0.081579;0.141105;1.118200;-0.753906;0.416992;0.351318;0.132494;-0.487231;0.406531;-0.761435
28961;4.669901;-4.690163;1.698522;-0.030313;0.138728;0.980405;-0.743652;0.428223;0.350586;0.137998;-0.482904;0.411028;-0.760800
28962;4.600577;-4.640336;1.572863;-0.166196;0.131898;0.811524;-0.739746;0.436523;0.351318;0.142060;-0.479411;0.415568;-0.759794
28963;4.609234;-4.829210;1.363019;-0.226715;0.113700;0.612701;-0.729004;0.451416;0.348145;0.144679;-0.476774;0.419655;-0.758712
28964;4.692043;-4.990911;1.271810;-0.167029;0.073709;0.397889;-0.732422;0.447021;0.350342;0.146314;-0.475060;0.422451;-0.757922
28965;4.712483;-4.954459;1.271972;-0.033900;0.030207;0.174931;-0.729492;0.450684;0.354248;0.147220;-0.474241;0.423464;-0.757693
28966;4.713416;-4.775961;1.376659;0.110069;-0.031830;-0.059482;-0.736572;0.450928;0.353760;0.147435;-0.474465;0.422563;-0.758015
28967;4.735925;-4.594815;1.410551;0.252032;-0.102298;-0.310416;-0.730469;0.443848;0.350342;0.146729;-0.475764;0.419772;-0.758888
28968;4.704022;-4.398465;1.440226;0.387129;-0.187202;-0.565648;-0.722412;0.446289;0.354736;0.145382;-0.478398;0.414907;-0.760165
28969;4.774840;-4.334079;1.549752;0.545163;-0.273528;-0.819561;-0.739014;0.442383;0.345703;0.143349;-0.482242;0.407900;-0.761913
28970;5.004377;-4.178890;1.807887;0.704256;-0.347168;-1.066807;-0.744141;0.428467;0.353271;0.140623;-0.487161;0.398757;-0.764128
28971;5.412895;-3.886700;2.129851;0.792384;-0.392440;-1.289364;-0.748535;0.411621;0.358887;0.136968;-0.492936;0.388036;-0.766604
28972;5.947469;-3.790363;2.371628;0.804602;-0.384850;-1.494835;-0.755859;0.395264;0.349854;0.132002;-0.499224;0.376322;-0.769241
28973;6.463409;-3.643855;2.452817;0.771625;-0.347866;-1.694387;-0.761963;0.387695;0.349854;0.125476;-0.505827;0.363936;-0.771975
28974;7.020295;-3.479512;2.486905;0.675352;-0.296501;-1.898928;-0.766357;0.361816;0.355225;0.117041;-0.512689;0.351258;-0.774642
28975;7.618327;-3.454737;2.435550;0.569919;-0.259849;-2.110462;-0.774902;0.336914;0.352539;0.106647;-0.519881;0.338275;-0.777123
28976;8.227331;-3.463670;2.387892;0.463059;-0.256567;-2.318130;-0.787598;0.306885;0.355713;0.094401;-0.527547;0.324954;-0.779222
28977;8.877674;-3.659864;2.507958;0.410624;-0.274320;-2.521355;-0.791748;0.280029;0.362793;0.080613;-0.535700;0.310921;-0.780932
28978;9.624227;-3.811096;2.613153;0.445505;-0.308147;-2.708893;-0.795410;0.243896;0.364258;0.065810;-0.544273;0.295646;-0.782323
28979;10.804379;-3.738492;2.525261;0.526684;-0.391402;-2.901184;-0.804443;0.209473;0.363525;0.050289;-0.553511;0.278746;-0.783197
28980;12.722698;-3.953825;2.616047;0.652489;-0.537796;-3.116868;-0.812012;0.167236;0.364014;0.034252;-0.563784;0.259769;-0.783259
28981;15.231885;-4.747823;2.989634;0.940735;-0.672357;-3.328076;-0.809326;0.131592;0.369385;0.018455;-0.574864;0.237658;-0.782758
28982;18.180014;-5.523752;4.070971;1.430258;-0.763139;-3.444878;-0.812744;0.094971;0.383301;0.004405;-0.586154;0.211560;-0.782078
28983;19.974242;-5.503452;5.352470;1.863453;-0.683968;-3.355191;-0.813721;0.055908;0.387207;-0.007091;-0.596154;0.182867;-0.781735
28984;17.067220;-4.156618;5.372506;1.917625;-0.555718;-3.085589;-0.794189;0.031006;0.395752;-0.016756;-0.604314;0.154952;-0.781354
28985;12.898891;-2.229731;4.455884;1.522512;-0.575513;-2.735507;-0.792236;-0.001709;0.409180;-0.026088;-0.611610;0.131268;-0.779758
28986;9.160918;-0.994833;3.512633;1.070825;-0.634740;-2.259820;-0.783936;-0.026123;0.421631;-0.034562;-0.618323;0.112870;-0.777009
28987;7.021531;-0.366797;3.381091;0.730330;-0.664688;-1.834189;-0.767578;-0.041504;0.436279;-0.041996;-0.624500;0.098834;-0.773607
28988;7.165864;-0.264641;3.462141;0.412990;-0.641044;-1.539833;-0.759766;-0.062988;0.447021;-0.049186;-0.630022;0.088351;-0.769966
28989;7.502117;-0.797637;3.148988;0.189933;-0.537367;-1.385635;-0.756836;-0.085693;0.449951;-0.056629;-0.634551;0.080033;-0.766638
28990;8.120602;-1.614686;2.392330;0.081256;-0.428512;-1.356788;-0.751709;-0.094238;0.443115;-0.064526;-0.638199;0.072482;-0.763731
28991;9.186434;-2.275765;1.870015;0.054861;-0.350890;-1.372040;-0.743408;-0.118164;0.469482;-0.072688;-0.641243;0.064972;-0.761120
28992;9.880557;-2.941211;1.973009;0.116293;-0.277062;-1.399044;-0.746338;-0.130371;0.455322;-0.080726;-0.643789;0.056881;-0.758804
28993;10.695310;-3.502526;2.288285;0.358153;-0.197250;-1.439487;-0.739014;-0.144775;0.467773;-0.087750;-0.645904;0.046998;-0.756901
28994;11.210259;-3.641500;2.659699;0.700753;-0.098775;-1.407597;-0.727539;-0.153320;0.475098;-0.092753;-0.647535;0.035058;-0.755557
28995;10.979170;-3.212607;2.898539;0.830251;0.006610;-1.304618;-0.718750;-0.170410;0.467285;-0.096425;-0.648465;0.022783;-0.754769
28996;10.221368;-2.858823;2.903937;0.708124;0.080273;-1.148767;-0.712402;-0.172119;0.471436;-0.099783;-0.648706;0.012076;-0.754373
28997;9.324774;-2.411905;2.781509;0.395619;0.122728;-0.948260;-0.715332;-0.177246;0.479980;-0.103563;-0.648336;0.004393;-0.754265
28998;8.567121;-2.241211;2.688470;-0.042562;0.138259;-0.734809;-0.713623;-0.195068;0.472412;-0.108364;-0.647447;0.000616;-0.754367
28999;8.158533;-2.443509;2.650745;-0.464039;0.141347;-0.521155;-0.706299;-0.204590;0.462646;-0.114096;-0.646133;0.000652;-0.754649
29000;7.890388;-2.889370;2.626369;-0.763587;0.144221;-0.300700;-0.707520;-0.211182;0.468506;-0.120050;-0.644488;0.003768;-0.755121
29001;7.781382;-3.384051;2.493564;-0.911609;0.150135;-0.090753;-0.703613;-0.211914;0.454834;-0.125473;-0.642619;0.008951;-0.755790
29002;7.769099;-3.754690;2.281093;-0.879983;0.151630;0.101173;-0.717041;-0.218994;0.448242;-0.129512;-0.640721;0.014977;-0.756623
29003;7.770225;-3.921193;2.148148;-0.738075;0.156795;0.261613;-0.713623;-0.218018;0.443848;-0.131779;-0.638892;0.020975;-0.757635
29004;7.737727;-4.007094;2.128246;-0.548392;0.158896;0.403524;-0.722168;-0.220947;0.445312;-0.132137;-0.637209;0.026545;-0.758815
29005;7.665840;-3.979533;2.103707;-0.337264;0.164662;0.540941;-0.719238;-0.217041;0.432129;-0.130504;-0.635670;0.031520;-0.760196
29006;7.674944;-3.819849;2.135462;-0.120902;0.166306;0.682977;-0.713135;-0.200928;0.429688;-0.126825;-0.634297;0.035892;-0.761771
29007;7.736550;-3.623323;2.188747;0.064363;0.166488;0.834233;-0.725586;-0.189209;0.424805;-0.121203;-0.633044;0.039899;-0.763527
29008;7.921508;-3.407583;2.218511;0.206994;0.161346;0.989401;-0.735352;-0.181396;0.431885;-0.113834;-0.631874;0.043835;-0.765412
29009;8.201467;-3.226367;2.229783;0.283666;0.146916;1.152457;-0.734863;-0.160645;0.429199;-0.105009;-0.630751;0.048164;-0.767337
29010;8.532086;-3.112724;2.269027;0.332051;0.125452;1.307488;-0.747314;-0.145508;0.425049;-0.094920;-0.629669;0.053023;-0.769218
29011;8.964682;-3.117027;2.406238;0.392641;0.098616;1.462902;-0.746826;-0.126465;0.424072;-0.083493;-0.628642;0.058334;-0.770996
29012;9.506121;-3.066845;2.491617;0.474733;0.082789;1.603356;-0.755859;-0.100342;0.431152;-0.070714;-0.627588;0.063864;-0.772693
29013;10.364195;-3.195772;2.696054;0.569963;0.063244;1.720315;-0.764893;-0.073975;0.420898;-0.056661;-0.626513;0.069400;-0.774244
29014;11.620203;-3.355120;2.919004;0.663449;0.069981;1.813314;-0.762207;-0.049316;0.427979;-0.041506;-0.625224;0.074802;-0.775743
29015;12.804032;-3.351364;3.259067;0.756627;0.102946;1.867579;-0.769043;-0.027588;0.432861;-0.025535;-0.623543;0.079865;-0.777280
29016;13.825228;-3.249394;3.472418;0.810760;0.156528;1.917372;-0.776855;0.000000;0.428223;-0.008995;-0.621301;0.084810;-0.778916
29017;14.299115;-2.907860;3.413847;0.754996;0.215786;1.967213;-0.784668;0.033691;0.431396;0.007546;-0.618435;0.090341;-0.780589
29018;15.293393;-2.700268;3.166189;0.607256;0.263072;2.035444;-0.783691;0.061279;0.424805;0.023729;-0.615016;0.097160;-0.782146
29019;16.562014;-2.341507;2.933376;0.380057;0.273304;2.075604;-0.784912;0.087646;0.410400;0.038993;-0.611338;0.105631;-0.783318
29020;17.006195;-2.141439;3.137779;0.083322;0.258278;2.136632;-0.774902;0.127441;0.416992;0.053164;-0.607597;0.116278;-0.783887
29021;16.202623;-2.563838;3.652871;-0.170918;0.288876;2.231884;-0.781494;0.146729;0.417725;0.066603;-0.603466;0.129069;-0.784050
29022;13.567688;-2.486626;4.175501;-0.358181;0.368257;2.393956;-0.779297;0.171631;0.406738;0.080037;-0.598505;0.143880;-0.784018
29023;11.006218;-2.094737;4.076167;-0.613233;0.425830;2.596425;-0.772217;0.206787;0.403076;0.093436;-0.592809;0.161296;-0.783473
29024;9.106492;-1.734815;3.314821;-0.845707;0.477427;2.821315;-0.768311;0.246338;0.394287;0.107044;-0.586314;0.181276;-0.782251
29025;8.085095;-1.864331;2.742814;-0.893353;0.527773;3.049122;-0.755127;0.272217;0.395020;0.121811;-0.578790;0.202542;-0.780475
29026;8.488169;-2.354881;2.498891;-0.784094;0.595784;3.153655;-0.753662;0.302979;0.397217;0.137536;-0.570100;0.223548;-0.778522
29027;9.051798;-2.850696;2.471335;-0.498508;0.724157;3.091952;-0.741699;0.343018;0.388672;0.153854;-0.559940;0.242382;-0.777205
29028;9.723036;-2.985343;2.502300;-0.156502;0.910445;2.864121;-0.737061;0.372314;0.378662;0.169844;-0.548214;0.257978;-0.777214
29029;10.179290;-2.725249;2.254262;0.086386;1.096667;2.486450;-0.723633;0.396729;0.364746;0.183986;-0.535440;0.270357;-0.778691
29030;9.980964;-2.173070;1.889727;0.116015;1.231707;2.020134;-0.719971;0.433594;0.338623;0.194816;-0.522553;0.280560;-0.781198
29031;9.215042;-1.354093;1.684797;-0.113097;1.270587;1.534216;-0.713867;0.442627;0.326416;0.201434;-0.510756;0.289996;-0.783872
29032;8.068575;-0.735475;1.480626;-0.523592;1.209237;1.107289;-0.714844;0.452393;0.333252;0.203553;-0.500959;0.300171;-0.785814
29033;7.141743;-0.548521;1.286571;-0.928731;1.074396;0.746170;-0.712402;0.455566;0.308105;0.201857;-0.493534;0.311299;-0.786620
29034;6.468870;-0.649345;1.241175;-1.179112;0.895308;0.469357;-0.709717;0.464600;0.316406;0.197819;-0.488353;0.322454;-0.786386
29035;6.002401;-0.917749;1.198156;-1.204816;0.700619;0.215999;-0.699951;0.460938;0.314209;0.192493;-0.485088;0.332436;-0.785572
29036;5.722127;-1.226186;1.111960;-0.990568;0.534373;-0.043168;-0.701416;0.456299;0.316162;0.186779;-0.483232;0.339660;-0.785004
29037;5.526493;-1.487398;1.005463;-0.586802;0.386159;-0.330766;-0.726074;0.449219;0.303711;0.181217;-0.482505;0.342825;-0.785379
29038;5.686081;-1.654779;0.857958;-0.132035;0.264990;-0.643751;-0.724121;0.437988;0.312500;0.175812;-0.482790;0.341441;-0.787034
29039;5.902251;-1.726367;0.728081;0.260037;0.165491;-0.944543;-0.721436;0.422852;0.306641;0.170245;-0.483972;0.336193;-0.789786
29040;6.151344;-1.481068;0.793592;0.508022;0.079708;-1.235720;-0.740234;0.429199;0.299072;0.163981;-0.486137;0.327991;-0.793223
29041;6.182148;-1.279000;0.885706;0.555776;-0.017393;-1.499375;-0.743164;0.404785;0.305420;0.156448;-0.489528;0.318182;-0.796647
29042;6.286818;-1.271150;0.946247;0.474541;-0.139096;-1.744183;-0.748779;0.378418;0.294678;0.147207;-0.494382;0.307756;-0.799501
29043;6.527661;-1.463524;1.181067;0.354288;-0.270233;-1.977578;-0.753906;0.352539;0.312500;0.136229;-0.500743;0.296867;-0.801604
29044;6.853551;-1.699694;1.489853;0.260348;-0.394968;-2.201246;-0.767822;0.329102;0.302734;0.123581;-0.508434;0.285548;-0.802923
29045;7.110006;-1.907597;1.872338;0.200217;-0.509728;-2.406168;-0.763916;0.306396;0.315430;0.109583;-0.517256;0.273421;-0.803542
29046;7.352065;-2.148371;2.216125;0.174348;-0.636954;-2.598839;-0.776123;0.267090;0.333008;0.094403;-0.527142;0.260506;-0.803335
29047;8.044150;-2.416788;2.646100;0.198456;-0.751472;-2.782069;-0.763184;0.234863;0.331299;0.078266;-0.537907;0.246424;-0.802375
29048;9.110451;-2.758807;3.263057;0.275506;-0.797925;-2.938553;-0.785645;0.194092;0.337402;0.061509;-0.548924;0.230914;-0.800986
29049;10.265853;-3.016106;3.935933;0.351859;-0.765155;-3.082734;-0.780029;0.157715;0.339600;0.044059;-0.559595;0.213965;-0.799457
29050;11.845432;-3.328491;4.347572;0.424967;-0.663959;-3.246006;-0.772949;0.120850;0.350098;0.025664;-0.569437;0.195627;-0.798006
29051;13.542248;-3.553364;4.302804;0.518510;-0.528665;-3.390757;-0.779053;0.071533;0.360352;0.006502;-0.578137;0.175858;-0.796736
29052;14.348678;-3.644948;3.962787;0.590896;-0.425121;-3.427241;-0.777588;0.033691;0.360107;-0.012715;-0.585710;0.155264;-0.795409
29053;14.019000;-3.470062;3.706478;0.556359;-0.415372;-3.362170;-0.764648;-0.004395;0.376465;-0.031669;-0.592635;0.135083;-0.793431
29054;14.191708;-3.124618;4.056966;0.395839;-0.472609;-3.231050;-0.761719;-0.036377;0.387207;-0.050462;-0.599281;0.116522;-0.790404
29055;15.241510;-3.143352;5.005258;0.187757;-0.500646;-3.028311;-0.750244;-0.076904;0.387207;-0.068898;-0.605402;0.100278;-0.786566
29056;15.452536;-3.290772;5.889234;0.026299;-0.424802;-2.769453;-0.741455;-0.113037;0.398438;-0.086478;-0.610349;0.086298;-0.782654
29057;14.281875;-3.458230;5.984866;-0.131210;-0.298013;-2.465689;-0.732910;-0.147949;0.396484;-0.102929;-0.613838;0.074764;-0.779114
29058;12.159655;-3.423303;5.188633;-0.352261;-0.177253;-2.132953;-0.716309;-0.163818;0.396484;-0.118388;-0.615911;0.066245;-0.776047
29059;10.381073;-3.559039;4.243274;-0.565812;-0.122491;-1.744161;-0.714111;-0.190430;0.392578;-0.132428;-0.617031;0.061040;-0.773311
29060;9.696298;-3.866878;3.761223;-0.566158;-0.107600;-1.342681;-0.705322;-0.200439;0.392822;-0.143867;-0.617732;0.057887;-0.770947
29061;9.518850;-4.350943;3.539894;-0.288556;-0.079013;-0.959438;-0.705566;-0.222168;0.397461;-0.151415;-0.618329;0.054898;-0.769239
29062;9.452533;-5.066486;3.290436;0.183268;-0.045769;-0.624137;-0.698242;-0.228516;0.394531;-0.154392;-0.619125;0.050583;-0.768302
29063;9.688586;-5.654524;3.096493;0.822910;-0.021681;-0.345336;-0.692627;-0.228027;0.401855;-0.152290;-0.620447;0.043596;-0.768084
29064;10.300989;-5.659708;3.258462;1.497323;0.011918;-0.115665;-0.694824;-0.236084;0.414307;-0.145230;-0.622262;0.033455;-0.768492
29065;11.025912;-5.190333;3.470014;1.987105;0.096422;0.055185;-0.689209;-0.216309;0.417969;-0.134532;-0.623947;0.020976;-0.769514
29066;11.022905;-4.223597;3.527623;2.133479;0.216199;0.204450;-0.692383;-0.201904;0.428955;-0.122099;-0.624816;0.008214;-0.771122
29067;10.334316;-2.960934;3.231780;1.836546;0.332536;0.385556;-0.692139;-0.202148;0.437744;-0.110024;-0.624444;-0.001800;-0.773279
29068;9.281570;-2.038789;2.853687;1.187298;0.421973;0.632084;-0.703613;-0.164307;0.440674;-0.099719;-0.622782;-0.006416;-0.775988
29069;8.295941;-1.684427;2.636778;0.461829;0.480738;0.935024;-0.705322;-0.165039;0.439697;-0.091207;-0.620081;-0.004807;-0.779204
29070;7.649054;-1.725127;2.503918;-0.148359;0.502840;1.240619;-0.709473;-0.142578;0.427490;-0.083854;-0.616714;0.002335;-0.782704
29071;7.283009;-2.033393;2.342120;-0.585181;0.495891;1.513285;-0.724121;-0.140869;0.419678;-0.076957;-0.612979;0.013739;-0.786222
29072;7.071591;-2.558208;2.222487;-0.779053;0.465213;1.757914;-0.734863;-0.120361;0.406738;-0.069427;-0.609143;0.027686;-0.789530
29073;7.017111;-2.920658;2.190862;-0.747458;0.431810;1.987050;-0.739258;-0.101562;0.404053;-0.060202;-0.605306;0.042608;-0.792569
29074;7.167239;-2.996522;2.129786;-0.620559;0.412275;2.192854;-0.745850;-0.074707;0.392090;-0.048953;-0.601370;0.057734;-0.795377
29075;7.420881;-3.095394;1.999652;-0.476335;0.423865;2.354452;-0.752441;-0.045654;0.392090;-0.035898;-0.597095;0.072693;-0.798063
29076;7.616930;-3.016541;1.950521;-0.331815;0.439618;2.471337;-0.768799;-0.013428;0.395020;-0.021344;-0.592424;0.087244;-0.800604
29077;8.099057;-2.864414;1.986163;-0.233598;0.473644;2.544953;-0.767578;0.014404;0.382812;-0.005831;-0.587210;0.101462;-0.803029
29078;8.602556;-2.695179;2.122607;-0.232243;0.536133;2.575742;-0.775146;0.041016;0.374756;0.009843;-0.581264;0.115774;-0.805377
29079;9.084511;-2.478060;2.224546;-0.363693;0.611203;2.560128;-0.770996;0.071777;0.368652;0.024695;-0.574548;0.130842;-0.807568
29080;9.679627;-2.426250;2.358564;-0.611813;0.703852;2.506317;-0.788086;0.099365;0.361816;0.037882;-0.567026;0.147275;-0.809541
29081;10.219551;-2.465734;2.346266;-0.897167;0.796683;2.437371;-0.778564;0.130859;0.351318;0.049121;-0.558758;0.165259;-0.811213
29082;10.480616;-2.489417;2.212530;-1.182327;0.851455;2.369476;-0.790771;0.157471;0.342041;0.058471;-0.550031;0.184784;-0.812344
29083;10.897478;-2.601054;2.146995;-1.439159;0.857931;2.282308;-0.781250;0.177979;0.336670;0.066012;-0.541211;0.205542;-0.812703
29084;11.564441;-2.894089;2.188965;-1.581133;0.827902;2.179232;-0.785645;0.201904;0.326172;0.072227;-0.532545;0.226659;-0.812284
29085;12.111853;-3.207413;2.410187;-1.567154;0.797765;2.052406;-0.787842;0.224365;0.325439;0.077667;-0.524028;0.246968;-0.811400
29086;12.154401;-3.386433;2.361596;-1.395698;0.744657;1.894435;-0.784668;0.240723;0.316406;0.082861;-0.515837;0.265272;-0.810356
29087;11.651024;-3.310067;2.336682;-1.127052;0.628976;1.695128;-0.780518;0.262695;0.302734;0.088091;-0.508491;0.280710;-0.809246
29088;12.016707;-3.053245;2.184797;-0.820702;0.441436;1.357355;-0.785156;0.272705;0.311768;0.092771;-0.502846;0.292422;-0.808102
29089;12.517579;-3.081131;1.875301;-0.482611;0.204470;0.921119;-0.772705;0.278320;0.309814;0.096482;-0.499535;0.299807;-0.807014
29090;12.505441;-3.209447;1.754364;-0.041473;-0.111238;0.480148;-0.776611;0.283447;0.310303;0.099845;-0.499074;0.302115;-0.806029
29091;11.267476;-2.778651;2.516402;0.364072;-0.409689;0.146851;-0.768066;0.291992;0.309082;0.103412;-0.501115;0.300035;-0.805089
29092;8.738304;-1.899200;3.808397;0.589336;-0.536643;-0.032745;-0.770264;0.293701;0.325928;0.107041;-0.504251;0.295559;-0.804312
29093;6.628340;-0.965648;4.004456;0.706381;-0.538154;-0.090724;-0.770996;0.285889;0.330811;0.110752;-0.507410;0.290060;-0.803825
29094;6.696544;-0.071290;3.479456;0.763040;-0.453561;-0.092143;-0.770508;0.289307;0.317139;0.114479;-0.509934;0.284214;-0.803794
29095;8.158593;0.650401;2.696371;0.722797;-0.330024;-0.173816;-0.762939;0.298096;0.320312;0.117232;-0.511846;0.278322;-0.804243
29096;10.145239;0.726759;1.986624;0.566556;-0.213820;-0.309577;-0.771484;0.299316;0.316406;0.118129;-0.513425;0.273021;-0.804922
29097;11.868117;0.533115;1.367259;0.318968;-0.120661;-0.486395;-0.770020;0.285156;0.326172;0.116580;-0.515019;0.268667;-0.805594
29098;12.470370;0.489679;1.178449;0.056781;-0.082187;-0.731983;-0.767578;0.278564;0.327148;0.112144;-0.517150;0.265065;-0.806052
29099;11.803172;0.303168;1.713228;-0.162510;-0.125408;-0.963794;-0.773682;0.253906;0.328613;0.105298;-0.520264;0.261875;-0.806014
29100;10.697226;0.020055;2.479877;-0.301155;-0.246214;-1.229751;-0.771484;0.251221;0.333252;0.096324;-0.524855;0.258295;-0.805315
29101;9.580230;-0.590372;3.217047;-0.367079;-0.365900;-1.456196;-0.782227;0.222168;0.342285;0.085791;-0.530711;0.254042;-0.804020
29102;8.513107;-1.365176;3.661881;-0.256818;-0.422214;-1.632010;-0.779053;0.207275;0.350342;0.074673;-0.537148;0.248158;-0.802692
29103;7.773442;-1.672606;3.498011;0.047082;-0.439234;-1.779765;-0.774414;0.180176;0.357666;0.063947;-0.543694;0.239522;-0.801833
29104;7.586273;-1.553012;2.939684;0.305607;-0.442070;-1.936326;-0.783447;0.165039;0.350830;0.053335;-0.550296;0.228381;-0.801356
29105;7.699698;-1.644502;2.531348;0.352553;-0.424339;-2.062930;-0.780029;0.127441;0.361328;0.042053;-0.556829;0.216251;-0.800880
29106;7.704781;-1.939857;2.325597;0.344226;-0.393202;-2.143736;-0.787354;0.110352;0.354980;0.030118;-0.563125;0.203741;-0.800295
29107;7.717399;-1.916055;2.233907;0.299604;-0.349512;-2.194156;-0.774658;0.084961;0.373291;0.017555;-0.569021;0.191217;-0.799589
29108;7.878389;-1.885657;2.198541;0.187104;-0.301935;-2.217197;-0.776123;0.055908;0.370361;0.004222;-0.574461;0.179308;-0.798639
29109;8.017182;-1.879960;2.235855;0.006176;-0.250668;-2.224524;-0.770508;0.023926;0.388184;-0.010106;-0.579370;0.168490;-0.797395
29110;8.169099;-2.014074;2.319004;-0.239773;-0.215772;-2.224197;-0.773926;-0.005371;0.385254;-0.025664;-0.583831;0.159253;-0.795689
29111;8.388279;-2.338039;2.468739;-0.496441;-0.197767;-2.222105;-0.770996;-0.040771;0.381592;-0.042474;-0.587895;0.151655;-0.793459
29112;8.676586;-2.658319;2.699293;-0.739415;-0.191733;-2.220012;-0.765625;-0.059814;0.391113;-0.060457;-0.591604;0.145613;-0.790662
29113;8.906330;-3.052484;2.848583;-0.921103;-0.196043;-2.228608;-0.759521;-0.097412;0.390137;-0.079360;-0.595026;0.140682;-0.787308
29114;9.084335;-3.530050;3.080315;-0.984983;-0.211963;-2.219102;-0.748291;-0.120850;0.384766;-0.098470;-0.598252;0.136171;-0.783489
29115;9.155111;-3.921025;3.282866;-0.958191;-0.231733;-2.182747;-0.735596;-0.164307;0.381104;-0.117150;-0.601341;0.131638;-0.779318
29116;9.201910;-4.388385;3.476404;-0.834995;-0.251976;-2.106288;-0.721436;-0.185791;0.387451;-0.134653;-0.604367;0.126664;-0.774962
29117;9.610817;-4.860933;3.820377;-0.593421;-0.268092;-1.999678;-0.716064;-0.206787;0.385498;-0.150190;-0.607452;0.120653;-0.770641
29118;10.363460;-5.349257;4.269669;-0.247022;-0.265937;-1.863829;-0.704834;-0.235596;0.388428;-0.163064;-0.610648;0.113082;-0.766636
29119;11.296881;-5.665149;4.799108;0.123211;-0.228668;-1.695187;-0.700439;-0.257080;0.385498;-0.172977;-0.613810;0.103941;-0.763225
29120;12.066711;-5.692838;5.072192;0.400794;-0.165789;-1.483643;-0.682129;-0.273682;0.389648;-0.180149;-0.616675;0.094022;-0.760538
29121;12.218750;-5.461117;4.962458;0.556085;-0.121872;-1.205577;-0.675293;-0.278809;0.404541;-0.184770;-0.619186;0.084484;-0.758506
29122;12.743969;-5.010700;5.029818;0.528241;-0.131527;-0.874459;-0.667480;-0.288574;0.407715;-0.187418;-0.621422;0.076852;-0.756838
29123;13.119362;-4.871344;5.499416;0.373297;-0.085886;-0.483335;-0.673096;-0.287598;0.404785;-0.188423;-0.622846;0.072162;-0.755879
29124;12.527143;-4.644473;5.780884;0.143839;-0.001214;-0.063512;-0.667969;-0.290039;0.408691;-0.188023;-0.623114;0.070978;-0.755869
29125;11.603754;-4.378220;5.630015;-0.096771;0.106829;0.371610;-0.668945;-0.291260;0.411621;-0.186195;-0.622064;0.073413;-0.756954
29126;10.291475;-4.068702;5.076663;-0.287536;0.218870;0.809671;-0.677979;-0.281494;0.400146;-0.182654;-0.619720;0.079157;-0.759157
29127;9.216958;-4.026633;4.304390;-0.349500;0.311803;1.276734;-0.686523;-0.269043;0.403076;-0.176524;-0.616328;0.087567;-0.762438
29128;8.600974;-4.002711;3.481884;-0.270192;0.379611;1.701555;-0.695068;-0.252686;0.388672;-0.167306;-0.612202;0.097549;-0.766617
29129;8.521631;-3.947891;2.805447;-0.030346;0.410079;2.032541;-0.710693;-0.226074;0.396240;-0.154733;-0.607786;0.107631;-0.771408
29130;8.821103;-4.051936;2.430400;0.342027;0.415408;2.292362;-0.730469;-0.198242;0.382568;-0.138556;-0.603371;0.116600;-0.776628
29131;9.516428;-4.093217;2.359350;0.794174;0.417090;2.456065;-0.738770;-0.170898;0.386230;-0.118991;-0.599043;0.123423;-0.782148
29132;10.917987;-3.907422;2.674654;1.175734;0.435619;2.518655;-0.752686;-0.124756;0.380127;-0.097074;-0.594597;0.127999;-0.787812
29133;12.934444;-3.670123;3.080937;1.404697;0.518843;2.476386;-0.761475;-0.095459;0.384766;-0.074335;-0.589492;0.130730;-0.793652
29134;14.327359;-3.359068;3.260903;1.459514;0.652838;2.385668;-0.781494;-0.062988;0.370361;-0.052036;-0.583289;0.132499;-0.799694
29135;14.348452;-2.870179;3.147769;1.296055;0.785661;2.302143;-0.796631;-0.024902;0.369141;-0.031206;-0.575893;0.134821;-0.805728
29136;13.331934;-2.139054;2.721916;0.900313;0.859424;2.263834;-0.792969;0.010010;0.353760;-0.012602;-0.567653;0.139532;-0.811259
29137;11.984012;-1.666017;2.286361;0.401141;0.851448;2.309127;-0.798828;0.038086;0.354004;0.003958;-0.559104;0.147767;-0.815814
29138;11.052292;-1.682603;2.046040;-0.012289;0.796161;2.426353;-0.801270;0.072510;0.340576;0.019450;-0.550551;0.159291;-0.819232
29139;10.428605;-1.625341;1.976051;-0.291167;0.731045;2.568571;-0.810059;0.094238;0.329346;0.034713;-0.542030;0.173277;-0.821568
29140;9.936415;-1.681579;1.812895;-0.496436;0.654747;2.696904;-0.810791;0.133301;0.310303;0.050018;-0.533615;0.189125;-0.822791
29141;9.441859;-1.982829;1.599439;-0.623120;0.566546;2.788200;-0.801270;0.172363;0.307617;0.065501;-0.525405;0.206095;-0.822912
29142;8.929250;-2.277806;1.365599;-0.632893;0.466450;2.837835;-0.809326;0.206787;0.296631;0.081411;-0.517485;0.223171;-0.822056
29143;8.415046;-2.395205;1.262383;-0.552108;0.380017;2.845965;-0.801025;0.236816;0.295654;0.097840;-0.509774;0.239524;-0.820479
29144;7.870122;-2.430321;1.217864;-0.427561;0.312920;2.811038;-0.799316;0.274414;0.294189;0.114631;-0.502192;0.254680;-0.818413
29145;7.429531;-2.376118;1.257726;-0.286069;0.276220;2.724759;-0.795654;0.311768;0.292480;0.131443;-0.494631;0.268330;-0.816126
29146;7.094893;-2.182429;1.295637;-0.180682;0.264538;2.579753;-0.786865;0.327637;0.285889;0.147663;-0.487110;0.280512;-0.813777
29147;6.805535;-2.060306;1.330293;-0.154966;0.276317;2.398384;-0.772705;0.366211;0.284912;0.162666;-0.479687;0.291668;-0.811400
29148;6.637154;-2.014478;1.307128;-0.194816;0.301821;2.179966;-0.773682;0.403320;0.283691;0.175911;-0.472497;0.302138;-0.809020
29149;6.667610;-1.945487;1.180217;-0.276588;0.341226;1.941461;-0.760254;0.425049;0.274414;0.187074;-0.465618;0.312177;-0.806690
29150;6.747267;-1.948571;1.090110;-0.360539;0.382977;1.686083;-0.752441;0.432617;0.281006;0.196041;-0.459141;0.321770;-0.804501
29151;6.995852;-1.898558;1.031931;-0.423857;0.407354;1.414441;-0.740234;0.456543;0.274658;0.202843;-0.453247;0.330717;-0.802526
29152;7.542142;-1.976598;1.095876;-0.465578;0.419362;1.101554;-0.736328;0.467773;0.267334;0.207335;-0.448147;0.338728;-0.800900
29153;8.278599;-2.164300;1.199102;-0.431050;0.419910;0.744165;-0.735107;0.475586;0.271973;0.209553;-0.443958;0.345135;-0.799919
29154;9.010941;-2.215844;1.300622;-0.296053;0.387273;0.345360;-0.737549;0.476807;0.265381;0.209698;-0.440884;0.349083;-0.799868
29155;9.212949;-1.965008;1.310669;-0.181841;0.299678;-0.060235;-0.738525;0.472168;0.262695;0.207813;-0.439373;0.350610;-0.800523
29156;9.230872;-1.722098;1.336522;-0.148529;0.127208;-0.499750;-0.739990;0.478516;0.257324;0.203622;-0.440239;0.349990;-0.801396
29157;10.016982;-1.888967;1.503423;-0.171261;-0.123170;-0.984260;-0.748535;0.468018;0.270752;0.196835;-0.444216;0.347290;-0.802071
29158;11.312321;-2.422519;1.840096;-0.090551;-0.420630;-1.524349;-0.754639;0.437744;0.275146;0.187576;-0.451564;0.341508;-0.802669
29159;12.058714;-2.898979;2.428940;0.150031;-0.749181;-2.064932;-0.768555;0.412354;0.281494;0.176496;-0.462163;0.331468;-0.803357
29160;11.325168;-3.169185;3.410225;0.447413;-1.030120;-2.487236;-0.772217;0.389404;0.287598;0.164437;-0.475180;0.317240;-0.804067
29161;9.867710;-3.329560;4.440895;0.733553;-1.180838;-2.740342;-0.787354;0.359131;0.292725;0.152120;-0.489207;0.299686;-0.804813
29162;8.862112;-3.285127;5.056574;0.988511;-1.175857;-2.821290;-0.788818;0.330811;0.310791;0.140183;-0.502744;0.279880;-0.805769
29163;8.581700;-3.181786;4.739867;1.263343;-1.057914;-2.742436;-0.796875;0.285645;0.321533;0.129553;-0.514623;0.258486;-0.807195
29164;9.430494;-2.557551;3.797003;1.592944;-0.896126;-2.621787;-0.802246;0.260742;0.324707;0.120708;-0.524431;0.235373;-0.809322
29165;10.666127;-1.817066;2.702714;1.779517;-0.756056;-2.494221;-0.805664;0.238770;0.334229;0.113181;-0.532485;0.211525;-0.811731
29166;11.679471;-1.304658;2.109507;1.666054;-0.652212;-2.415862;-0.812256;0.211670;0.339600;0.105423;-0.539453;0.188741;-0.813790
29167;12.743763;-1.142458;2.264829;1.246382;-0.599550;-2.339816;-0.814941;0.187744;0.346680;0.096151;-0.546002;0.169071;-0.814894
29168;13.289024;-1.108157;3.133330;0.619344;-0.540478;-2.253350;-0.820312;0.149170;0.348633;0.084486;-0.552279;0.154012;-0.814942
29169;12.854378;-1.201802;4.123535;-0.090910;-0.484650;-2.234057;-0.810791;0.116211;0.364990;0.069579;-0.558438;0.143835;-0.814013
29170;12.042554;-1.338346;4.741364;-0.833198;-0.406461;-2.211072;-0.810303;0.092529;0.368652;0.051254;-0.564252;0.138782;-0.812239
29171;10.957897;-1.994327;4.692609;-1.428500;-0.303801;-2.155253;-0.806396;0.051025;0.365479;0.030366;-0.569312;0.137996;-0.809888
29172;9.972981;-2.431414;4.168694;-1.714083;-0.207145;-2.085225;-0.808105;0.031006;0.369141;0.008469;-0.573426;0.139423;-0.807262
29173;9.126186;-2.579546;3.438016;-1.817448;-0.138370;-2.043472;-0.810303;-0.015869;0.364746;-0.013727;-0.576737;0.141679;-0.804433
29174;8.764560;-2.983561;2.810139;-1.799940;-0.090675;-2.044609;-0.792725;-0.040527;0.367920;-0.035898;-0.579427;0.143734;-0.801446
29175;8.598490;-3.520979;2.422945;-1.640703;-0.044994;-2.062829;-0.793213;-0.078369;0.362305;-0.057459;-0.581589;0.144558;-0.798471
29176;8.491289;-3.846315;2.153860;-1.381702;0.007906;-2.081547;-0.780029;-0.113037;0.357178;-0.077932;-0.583273;0.143484;-0.795696
29177;8.403588;-3.924533;2.055130;-1.089950;0.044639;-2.087253;-0.778564;-0.136963;0.352539;-0.097038;-0.584667;0.140374;-0.793123
29178;8.374020;-3.758099;2.092520;-0.838778;0.065056;-2.088142;-0.767578;-0.174316;0.343506;-0.114917;-0.585909;0.135545;-0.790653
29179;8.356868;-3.452573;2.236226;-0.727956;0.050783;-2.077945;-0.761230;-0.197266;0.336670;-0.132137;-0.587133;0.130011;-0.787979
29180;8.415873;-3.252103;2.449008;-0.782726;0.017676;-2.055887;-0.746338;-0.229248;0.338135;-0.149401;-0.588290;0.124949;-0.784845
29181;8.467020;-3.173244;2.721653;-0.944652;-0.014998;-2.001615;-0.741211;-0.256836;0.335938;-0.167020;-0.589203;0.121213;-0.781186
29182;8.465389;-3.175706;2.847236;-1.161332;-0.047814;-1.922321;-0.722168;-0.286865;0.325928;-0.185097;-0.589742;0.119293;-0.776990
29183;8.341686;-3.362079;2.952615;-1.368014;-0.088024;-1.810867;-0.715088;-0.303711;0.309814;-0.203366;-0.589900;0.119287;-0.772289
29184;8.118363;-3.809548;3.073439;-1.454518;-0.134082;-1.653896;-0.701660;-0.334473;0.304932;-0.220935;-0.589844;0.120657;-0.767276
29185;7.833920;-4.314459;3.302904;-1.366362;-0.181097;-1.450902;-0.691895;-0.357666;0.309814;-0.236659;-0.589865;0.122521;-0.762260
29186;7.737470;-4.774377;3.542538;-1.104547;-0.231290;-1.214401;-0.688232;-0.366943;0.296631;-0.249489;-0.590340;0.123967;-0.757552
29187;7.951340;-5.239464;3.796873;-0.692469;-0.282355;-0.956801;-0.675537;-0.384766;0.290039;-0.258577;-0.591641;0.124179;-0.753444
29188;8.648682;-5.562350;4.178732;-0.182249;-0.327028;-0.688105;-0.672119;-0.385254;0.295654;-0.263399;-0.594001;0.122611;-0.750167
29189;9.692618;-5.706612;4.569005;0.315984;-0.341730;-0.415663;-0.669922;-0.384766;0.306885;-0.264027;-0.597246;0.119319;-0.747897
29190;10.457862;-5.666549;4.843944;0.721470;-0.321667;-0.134131;-0.657959;-0.395264;0.313232;-0.260893;-0.600957;0.114865;-0.746721
29191;10.679060;-5.269415;4.795354;0.987227;-0.293950;0.158935;-0.668701;-0.393066;0.319580;-0.254615;-0.604756;0.110171;-0.746528
29192;10.423479;-4.580656;4.621754;1.054766;-0.289252;0.470737;-0.673584;-0.389893;0.326416;-0.246039;-0.608329;0.106621;-0.747016
29193;11.440800;-4.564621;5.064562;1.031447;-0.311902;0.761164;-0.668457;-0.370361;0.342529;-0.235726;-0.611670;0.104733;-0.747880
29194;13.287536;-4.975588;6.017421;1.089355;-0.208506;1.039960;-0.688477;-0.359863;0.356201;-0.223436;-0.614149;0.103699;-0.749763
29195;13.623404;-4.989737;6.185478;1.176007;-0.022938;1.292738;-0.696289;-0.330566;0.357666;-0.209242;-0.615294;0.103064;-0.753000
29196;13.015100;-4.548422;5.498535;1.219339;0.170665;1.519701;-0.714600;-0.316162;0.356445;-0.193517;-0.614955;0.102969;-0.757482
29197;11.332254;-3.901429;4.466077;1.180094;0.330963;1.810963;-0.719482;-0.286133;0.373047;-0.176234;-0.613104;0.104335;-0.762994
29198;9.915844;-3.287756;3.562879;1.171587;0.419200;2.157328;-0.736572;-0.254883;0.363525;-0.156802;-0.610140;0.107362;-0.769165
29199;9.242839;-2.904661;3.092825;1.199988;0.475228;2.494852;-0.754150;-0.227783;0.375977;-0.135037;-0.606249;0.111805;-0.775711
29200;9.256722;-2.952221;2.818732;1.332743;0.517367;2.755461;-0.770996;-0.181396;0.368652;-0.110876;-0.601619;0.116594;-0.782411
29201;9.862005;-3.185166;2.673543;1.605731;0.549793;2.918508;-0.784424;-0.142334;0.367432;-0.084234;-0.596424;0.120311;-0.789118
29202;11.158285;-3.378117;2.645048;1.934168;0.592570;2.978133;-0.804932;-0.093994;0.368408;-0.055546;-0.590609;0.122037;-0.795740
29203;12.893699;-3.586489;2.725589;2.288151;0.671601;2.933671;-0.815430;-0.044922;0.363281;-0.025439;-0.583914;0.121048;-0.802337
29204;14.601592;-3.620308;2.684339;2.615258;0.792133;2.789975;-0.816406;-0.003662;0.349121;0.005199;-0.576024;0.117026;-0.808996
29205;15.706767;-3.472535;2.476701;2.839097;0.928654;2.583434;-0.833252;0.048828;0.346191;0.035378;-0.566782;0.110387;-0.815672
29206;15.491020;-3.052579;2.210390;2.890627;1.059486;2.380696;-0.830811;0.094727;0.326660;0.064261;-0.556214;0.102361;-0.822203
29207;14.412625;-2.426981;1.934366;2.742858;1.179814;2.239309;-0.839111;0.136719;0.306885;0.091320;-0.544457;0.094651;-0.828413
29208;12.983235;-1.724672;1.582623;2.434670;1.268765;2.147092;-0.843262;0.170898;0.284668;0.116188;-0.531898;0.088627;-0.834105
29209;11.989235;-1.242951;1.285025;2.027341;1.328067;2.116335;-0.834229;0.195312;0.268799;0.138900;-0.518927;0.085278;-0.839136
29210;11.228219;-0.918950;1.090824;1.573994;1.357097;2.124992;-0.844238;0.236084;0.255371;0.159597;-0.505925;0.085106;-0.843401
29211;10.697154;-0.751905;1.044822;1.065397;1.357678;2.141104;-0.835938;0.260742;0.216797;0.178171;-0.493295;0.088520;-0.846805
29212;10.295422;-0.756647;0.998803;0.507464;1.328636;2.138470;-0.831543;0.293213;0.202881;0.194367;-0.481459;0.095763;-0.849263
29213;9.832688;-1.024326;0.905710;0.000109;1.277542;2.126246;-0.824463;0.320068;0.184570;0.208395;-0.470603;0.106414;-0.850753
29214;9.240519;-1.279462;0.828572;-0.373331;1.209643;2.099853;-0.823730;0.346680;0.166992;0.220743;-0.460704;0.119436;-0.851328
29215;8.636768;-1.408160;0.713623;-0.643640;1.125664;2.051629;-0.812500;0.379883;0.160156;0.231705;-0.451757;0.133979;-0.851045
29216;7.958060;-1.537639;0.594525;-0.842438;1.028462;1.990850;-0.799805;0.412598;0.153809;0.241503;-0.443771;0.149453;-0.849946
29217;7.337969;-1.703398;0.533440;-0.947230;0.905144;1.909117;-0.794189;0.428467;0.148193;0.250395;-0.436802;0.165054;-0.848094
29218;6.849039;-1.836746;0.414001;-0.978752;0.776643;1.808458;-0.783203;0.455078;0.136963;0.258549;-0.430794;0.180179;-0.845639
29219;6.473350;-2.015970;0.372106;-0.934848;0.643010;1.676818;-0.776611;0.471680;0.132568;0.266054;-0.425699;0.194173;-0.842788
29220;6.136239;-2.159391;0.335243;-0.822470;0.508704;1.522677;-0.758789;0.491699;0.140625;0.273024;-0.421442;0.206479;-0.839768
29221;5.905037;-2.294211;0.245306;-0.648671;0.371415;1.340491;-0.752930;0.512207;0.135986;0.279513;-0.417985;0.216572;-0.836814
29222;5.844461;-2.389006;0.175093;-0.436853;0.233058;1.123685;-0.745361;0.530762;0.133301;0.285439;-0.415337;0.224077;-0.834152
29223;5.987767;-2.446383;0.137840;-0.218193;0.084007;0.867928;-0.737549;0.533447;0.125244;0.290599;-0.413652;0.228801;-0.831922
29224;6.222647;-2.489620;0.181387;-0.008876;-0.087890;0.567761;-0.731445;0.546875;0.128662;0.294717;-0.413212;0.230610;-0.830191
29225;6.441648;-2.548097;0.460423;0.176239;-0.294584;0.242230;-0.724609;0.546143;0.136719;0.297611;-0.414369;0.229501;-0.828888
29226;6.677457;-2.845775;0.867008;0.358452;-0.528210;-0.089484;-0.735107;0.541992;0.139160;0.299284;-0.417317;0.225399;-0.827932
29227;7.089768;-3.197477;1.407717;0.597463;-0.796089;-0.433135;-0.736572;0.542725;0.146240;0.299905;-0.422144;0.217767;-0.827302
29228;7.827611;-3.749312;2.101208;0.927841;-1.082635;-0.778501;-0.744873;0.530273;0.154541;0.299788;-0.428694;0.205892;-0.827017
29229;8.881081;-4.427508;2.967126;1.451617;-1.334391;-1.106993;-0.743896;0.522705;0.156982;0.298614;-0.435907;0.189080;-0.827686
29230;10.231923;-4.987482;3.744013;2.131957;-1.543814;-1.381568;-0.751709;0.506592;0.157715;0.299220;-0.443332;0.165434;-0.828587
29231;10.121587;-5.012281;4.389277;2.797451;-1.714542;-1.458297;-0.765625;0.489746;0.164795;0.301766;-0.450050;0.136355;-0.829337
29232;9.271603;-4.618173;4.991677;3.271988;-1.933043;-1.328106;-0.777832;0.466309;0.156250;0.306936;-0.456483;0.103794;-0.828638
29233;9.654019;-3.999898;5.695111;3.621676;-2.099395;-1.080560;-0.786133;0.469727;0.171631;0.314918;-0.462403;0.069207;-0.825967
29234;10.589975;-3.172943;6.421042;3.830683;-2.107210;-0.760210;-0.779785;0.457520;0.170898;0.325497;-0.467026;0.034301;-0.821439
29235;11.497128;-2.333175;6.205227;3.875747;-2.005797;-0.411034;-0.778809;0.453125;0.177734;0.338174;-0.470103;0.000668;-0.815256
29236;11.353410;-1.459455;5.645778;3.642110;-1.893331;-0.071807;-0.779785;0.458252;0.173584;0.351818;-0.472482;-0.029739;-0.807527
29237;10.788568;-1.046954;5.447180;3.120653;-1.818840;0.210347;-0.777832;0.457520;0.191406;0.364963;-0.475468;-0.055285;-0.798546
29238;10.338537;-0.908109;5.639099;2.515334;-1.724027;0.369730;-0.768555;0.468750;0.185791;0.376531;-0.479364;-0.075847;-0.789102
29239;9.708112;-0.944175;5.698218;1.941736;-1.606437;0.410771;-0.771729;0.469238;0.190674;0.385943;-0.484046;-0.092067;-0.779917
29240;9.029627;-1.134599;5.527311;1.534328;-1.503945;0.355843;-0.766357;0.474121;0.205078;0.393282;-0.489139;-0.105498;-0.771325
29241;8.609469;-1.307815;5.232120;1.283217;-1.431923;0.242824;-0.761475;0.490967;0.210693;0.398817;-0.494347;-0.117510;-0.763386
29242;8.409547;-1.673896;5.052181;1.113646;-1.391054;0.076402;-0.761475;0.492920;0.224854;0.402537;-0.499574;-0.128964;-0.756147
29243;8.402425;-2.060651;4.976155;1.039474;-1.353826;-0.094321;-0.756592;0.498535;0.237061;0.404826;-0.504524;-0.140509;-0.749552
29244;8.040149;-2.355480;4.678399;1.007832;-1.352604;-0.224400;-0.754150;0.485840;0.243164;0.406088;-0.509316;-0.152368;-0.743286
29245;8.646301;-1.343345;5.898177;0.587871;-1.290900;-0.338137;-0.763672;0.479004;0.256348;0.404869;-0.514911;-0.161871;-0.738069
29246;8.607753;-1.585601;6.357525;-0.586745;-1.138426;-0.399775;-0.764893;0.473633;0.278076;0.398379;-0.523375;-0.163875;-0.735199
29247;8.423693;-3.985242;5.514289;-1.144429;-1.064780;-0.507324;-0.762207;0.479980;0.295898;0.388835;-0.533008;-0.162658;-0.733657
29248;7.529123;-6.398590;3.934540;-0.396862;-1.082513;-0.696084;-0.759766;0.462158;0.312256;0.381369;-0.539985;-0.166875;-0.731523
29249;7.534339;-6.616788;3.408431;1.138342;-1.145194;-0.815976;-0.754883;0.454102;0.313232;0.379924;-0.542203;-0.181147;-0.727228
29250;7.660883;-6.190581;2.994696;2.670391;-1.212103;-0.895471;-0.770752;0.457031;0.308105;0.384649;-0.539616;-0.205179;-0.720251
29251;7.856955;-5.656736;2.962030;3.964294;-1.257471;-0.872522;-0.765137;0.446045;0.301758;0.394884;-0.532681;-0.236806;-0.710099
29252;8.129798;-5.330814;2.952951;4.960490;-1.316865;-0.794186;-0.763428;0.457031;0.287598;0.409268;-0.522143;-0.273787;-0.696353
29253;8.724264;-5.346392;3.183231;5.751987;-1.318858;-0.643596;-0.774902;0.462891;0.270264;0.427081;-0.508136;-0.314104;-0.678777
29254;9.125907;-4.961888;3.467280;6.294025;-1.224930;-0.458489;-0.766357;0.475830;0.257080;0.447346;-0.490806;-0.355518;-0.657722
29255;9.435083;-4.374599;3.582250;6.528527;-1.044624;-0.258094;-0.766602;0.480469;0.221924;0.468882;-0.470760;-0.395661;-0.634025
29256;9.535919;-3.711482;3.457568;6.521017;-0.801919;-0.034520;-0.765137;0.486328;0.185059;0.490958;-0.448779;-0.432734;-0.608521
29257;9.582361;-2.865411;3.282143;6.309129;-0.526731;0.182157;-0.760986;0.496338;0.147461;0.512918;-0.425754;-0.465540;-0.582169
29258;9.589594;-2.002527;3.203333;5.878530;-0.236220;0.370954;-0.759033;0.500977;0.108887;0.534066;-0.402786;-0.493130;-0.556201
29259;9.637155;-1.382397;3.175656;5.322694;0.055997;0.510629;-0.757080;0.499512;0.079102;0.554027;-0.380623;-0.515288;-0.531657
29260;9.643637;-0.865603;3.278858;4.705738;0.341729;0.614588;-0.750488;0.507568;0.043701;0.572738;-0.359810;-0.532145;-0.509245
29261;9.484952;-0.359061;3.479678;3.986050;0.624187;0.703047;-0.749023;0.506104;0.006104;0.590140;-0.341130;-0.543603;-0.489756
29262;9.276386;0.046488;3.550486;3.106796;0.865020;0.765475;-0.741211;0.509277;-0.029541;0.605822;-0.325744;-0.549584;-0.474161
29263;9.252073;0.046377;3.450317;2.121381;1.023468;0.801798;-0.731934;0.524414;-0.056152;0.619340;-0.314676;-0.550441;-0.463046
29264;9.308033;-0.413081;3.201867;1.162459;1.111734;0.826879;-0.720947;0.517822;-0.077148;0.630641;-0.308228;-0.546892;-0.456285
29265;9.812395;-1.189690;3.015910;0.326601;1.117239;0.855727;-0.711182;0.526855;-0.097900;0.639814;-0.306224;-0.539958;-0.453113
29266;11.522455;-2.689480;2.912755;-0.289183;1.082225;0.896800;-0.699463;0.551270;-0.097412;0.647319;-0.307777;-0.530699;-0.452338
29267;13.041331;-4.938940;2.755349;-0.406569;1.070478;0.948634;-0.696777;0.548828;-0.101562;0.654571;-0.310191;-0.520849;-0.451703
29268;12.684865;-6.393131;2.313977;0.002630;1.066914;1.050113;-0.675049;0.576172;-0.116699;0.663145;-0.310781;-0.512216;-0.448653
29269;11.127375;-6.521152;1.545775;0.543119;1.036014;1.229207;-0.647461;0.572754;-0.138916;0.673539;-0.309212;-0.505219;-0.442139
29270;9.704477;-6.014494;0.698825;1.013396;0.933121;1.478287;-0.641357;0.593506;-0.155518;0.685467;-0.306357;-0.499770;-0.431868
29271;9.410044;-6.023188;0.157173;1.550705;0.771521;1.709875;-0.615723;0.600830;-0.179932;0.698689;-0.301875;-0.496415;-0.417465
29272;10.207898;-6.142261;0.204898;2.135705;0.661240;1.851738;-0.602783;0.606201;-0.205078;0.713073;-0.294808;-0.495133;-0.399322
29273;11.513463;-6.258868;0.183511;2.504780;0.667395;1.886265;-0.584473;0.608643;-0.230957;0.728041;-0.285479;-0.494639;-0.379196
29274;12.436249;-6.613142;-0.000159;2.488673;0.765687;1.883156;-0.565674;0.613525;-0.257080;0.742846;-0.275721;-0.493153;-0.359106
29275;12.850243;-6.876935;-0.278710;2.130150;0.865949;1.885273;-0.542969;0.610352;-0.283203;0.756752;-0.267709;-0.489643;-0.340453
29276;12.728050;-6.514491;-0.532052;1.554633;0.928725;1.930088;-0.513428;0.619385;-0.298096;0.769340;-0.263185;-0.483738;-0.323802
29277;12.352045;-5.983228;-0.702731;0.931278;0.927641;2.027648;-0.486328;0.623535;-0.320312;0.780474;-0.262938;-0.475732;-0.308874
29278;11.850472;-5.578183;-0.538935;0.335334;0.887220;2.184160;-0.455811;0.639404;-0.334717;0.790228;-0.267190;-0.465927;-0.295063
29279;11.314960;-5.398791;-0.243955;-0.233144;0.840737;2.376419;-0.433350;0.666016;-0.324707;0.798671;-0.275936;-0.454411;-0.281950
29280;10.748791;-5.318436;-0.069256;-0.727696;0.791454;2.562783;-0.403320;0.683350;-0.326904;0.805827;-0.288663;-0.441414;-0.269204
29281;10.276675;-5.420054;-0.065816;-1.149606;0.733135;2.732911;-0.372314;0.711914;-0.316895;0.811647;-0.304811;-0.427198;-0.256556
29282;9.771171;-5.708247;-0.252918;-1.452822;0.655862;2.856574;-0.333740;0.740723;-0.311279;0.816110;-0.323407;-0.412250;-0.243766
29283;9.332188;-6.081318;-0.529299;-1.544719;0.547146;2.927528;-0.299561;0.763672;-0.287598;0.819461;-0.342849;-0.397355;-0.230320
29284;8.963181;-6.304722;-0.928445;-1.417620;0.424189;2.948066;-0.262207;0.780518;-0.280518;0.822162;-0.361468;-0.383187;-0.215775
29285;8.625866;-6.519319;-1.033311;-1.109493;0.300327;2.933153;-0.232422;0.804443;-0.271973;0.824760;-0.377894;-0.370194;-0.199809
29286;8.472769;-6.431103;-0.889309;-0.673774;0.189704;2.883353;-0.187744;0.817383;-0.256104;0.827754;-0.391114;-0.358609;-0.182355
29287;8.420589;-5.961820;-0.521480;-0.257703;0.107084;2.789782;-0.151123;0.822998;-0.253174;0.831221;-0.401088;-0.348325;-0.163920
29288;8.253762;-5.501993;-0.088808;0.017274;0.050388;2.670501;-0.121338;0.837158;-0.259521;0.834833;-0.408682;-0.339028;-0.145232
29289;8.090286;-5.093096;0.187331;0.159163;-0.009765;2.525622;-0.089111;0.837158;-0.272217;0.838178;-0.414762;-0.330655;-0.126875
29290;7.899937;-4.489415;0.454401;0.115310;-0.076982;2.369028;-0.065918;0.837158;-0.264404;0.840658;-0.420615;-0.323107;-0.109445
29291;7.703946;-4.053958;0.549871;-0.080997;-0.143326;2.191184;-0.029785;0.837891;-0.258789;0.841793;-0.427273;-0.316350;-0.093516
29292;7.528821;-3.999949;0.717608;-0.217980;-0.205927;1.993006;-0.015625;0.836914;-0.261719;0.841849;-0.434286;-0.310533;-0.079088
29293;7.481669;-3.826725;0.878825;-0.270403;-0.256442;1.787225;0.007080;0.831055;-0.252441;0.841224;-0.441054;-0.305701;-0.066037
29294;7.406560;-3.818572;0.946731;-0.226563;-0.309933;1.560799;0.024902;0.842773;-0.241211;0.840317;-0.446875;-0.302037;-0.054255
29295;7.368127;-3.722684;1.137838;-0.082407;-0.381808;1.328329;0.047119;0.836670;-0.252197;0.839523;-0.451061;-0.299760;-0.043463
29296;7.264222;-3.568016;1.418613;0.142527;-0.440778;1.083308;0.051270;0.838379;-0.249756;0.839236;-0.453028;-0.298864;-0.033601
29297;7.307782;-3.129899;1.598509;0.319198;-0.475839;0.827791;0.060791;0.833984;-0.250488;0.839384;-0.453091;-0.299200;-0.024953
29298;7.477063;-2.709102;1.631947;0.407964;-0.519774;0.526421;0.069580;0.831787;-0.261719;0.839642;-0.451761;-0.300981;-0.018028
29299;7.731274;-2.451243;1.682964;0.465648;-0.593661;0.187744;0.065430;0.825195;-0.273926;0.839842;-0.449162;-0.304546;-0.013054
29300;8.292848;-2.370416;2.118205;0.531054;-0.678919;-0.216880;0.052734;0.822754;-0.278809;0.839988;-0.445061;-0.310215;-0.010431
29301;9.685821;-2.531579;2.365328;0.577840;-0.733071;-0.771898;0.042480;0.822021;-0.287842;0.840057;-0.439160;-0.318299;-0.011375
29302;10.405660;-2.634528;2.245363;0.648013;-0.831141;-1.391840;0.023682;0.823486;-0.289795;0.839938;-0.431056;-0.329296;-0.016118
29303;9.627664;-2.939565;2.357638;0.707380;-1.019036;-1.916880;-0.005615;0.815186;-0.300781;0.839213;-0.420988;-0.343408;-0.023699
29304;9.292432;-3.040822;2.926355;0.702488;-1.213383;-2.372572;-0.043457;0.804199;-0.305420;0.837460;-0.409493;-0.360326;-0.033791
29305;9.254114;-3.165017;3.796279;0.725168;-1.313386;-2.736275;-0.090820;0.795898;-0.317627;0.834887;-0.396521;-0.378971;-0.045995
29306;9.116132;-3.444839;4.477409;0.928439;-1.283064;-2.942846;-0.134521;0.789062;-0.326904;0.832408;-0.381172;-0.397890;-0.059065
29307;9.072505;-3.357667;4.596938;1.303138;-1.225107;-3.005223;-0.180908;0.770020;-0.335938;0.830615;-0.362672;-0.416463;-0.071467
29308;9.574737;-2.778499;4.374195;1.650382;-1.204727;-2.997015;-0.221924;0.754639;-0.352051;0.829225;-0.341456;-0.434705;-0.082609
29309;10.745206;-2.530591;4.147863;1.932213;-1.191640;-2.959344;-0.260742;0.723389;-0.371582;0.827942;-0.318093;-0.452532;-0.092435
29310;11.744818;-2.376425;4.149608;2.206030;-1.160139;-2.864636;-0.300781;0.692139;-0.384033;0.826771;-0.292853;-0.469652;-0.100572
29311;12.253108;-1.823380;4.157382;2.280852;-1.195387;-2.706616;-0.335693;0.658936;-0.401123;0.824970;-0.267451;-0.486225;-0.107147
29312;12.558587;-1.505784;4.737460;2.103833;-1.294538;-2.545185;-0.369629;0.628418;-0.418213;0.821764;-0.243755;-0.502510;-0.113013
29313;12.345206;-1.426494;5.631947;1.804252;-1.366430;-2.392399;-0.396973;0.602783;-0.409668;0.817130;-0.222612;-0.518282;-0.118855
29314;11.698472;-1.753302;6.327107;1.515139;-1.403211;-2.259586;-0.431152;0.568848;-0.419922;0.811364;-0.203886;-0.533404;-0.124896
29315;10.967755;-2.374023;6.514999;1.464314;-1.404797;-2.064219;-0.465820;0.542480;-0.424316;0.805213;-0.186244;-0.547818;-0.129768
29316;10.233546;-2.464908;6.533612;1.569448;-1.348955;-1.810735;-0.487305;0.504883;-0.420898;0.799314;-0.168886;-0.561270;-0.132478
29317;9.708160;-2.233485;6.121201;1.679664;-1.215658;-1.597979;-0.502441;0.479736;-0.432129;0.794033;-0.151555;-0.573369;-0.133381
29318;8.857148;-1.817378;5.338470;1.641249;-1.072314;-1.435126;-0.524902;0.451416;-0.434326;0.789221;-0.135028;-0.584013;-0.133515
29319;8.231883;-1.597079;4.616852;1.422375;-0.960421;-1.300411;-0.544434;0.433105;-0.427979;0.784573;-0.120420;-0.593307;-0.133908
29320;7.720485;-1.434522;4.092685;1.104548;-0.863945;-1.181252;-0.548584;0.407715;-0.429199;0.780000;-0.108337;-0.601329;-0.135155
29321;7.431194;-1.373057;4.020956;0.732095;-0.784069;-1.087649;-0.568848;0.390381;-0.426514;0.775446;-0.099032;-0.608205;-0.137708
29322;7.368655;-1.525759;4.270217;0.398726;-0.691815;-1.037872;-0.583496;0.375244;-0.422119;0.771034;-0.092012;-0.613974;-0.141688
29323;7.328693;-1.810322;4.319730;0.139085;-0.594793;-1.019034;-0.584473;0.376221;-0.410400;0.766862;-0.086633;-0.618731;-0.146936
29324;7.199264;-2.166754;4.265890;-0.092276;-0.504271;-1.028450;-0.596680;0.361328;-0.412598;0.762908;-0.082564;-0.622572;-0.153490
29325;7.161717;-2.454060;4.185526;-0.316876;-0.427964;-1.051514;-0.607178;0.352539;-0.408691;0.759097;-0.079699;-0.625597;-0.161394
29326;7.230934;-2.927583;4.206471;-0.471541;-0.368930;-1.070017;-0.621338;0.345703;-0.391846;0.755393;-0.077629;-0.627990;-0.170245
29327;7.329977;-3.320370;4.340608;-0.491327;-0.312982;-1.057282;-0.616455;0.335449;-0.395020;0.751913;-0.075663;-0.629930;-0.179137
29328;7.432028;-3.622634;4.522985;-0.412682;-0.245633;-1.014218;-0.625977;0.340088;-0.395508;0.748833;-0.073325;-0.631478;-0.187372
29329;7.551657;-3.891144;4.602561;-0.278402;-0.164042;-0.935858;-0.622559;0.329590;-0.382324;0.746331;-0.070429;-0.632630;-0.194444
29330;8.339857;-4.238108;4.682915;-0.097810;-0.094180;-0.819751;-0.635498;0.319580;-0.391602;0.744452;-0.066907;-0.633534;-0.199870
29331;9.545408;-4.306123;4.908754;0.094709;0.006611;-0.667989;-0.634521;0.311768;-0.383301;0.743440;-0.062823;-0.634023;-0.203385
29332;10.654368;-4.191729;4.982735;0.211081;0.116357;-0.492221;-0.634766;0.302246;-0.386963;0.743349;-0.058761;-0.633920;-0.205244
29333;11.529667;-4.014721;4.940856;0.223731;0.213434;-0.292542;-0.640137;0.296143;-0.394775;0.744109;-0.055511;-0.633127;-0.205841
29334;12.134119;-3.780165;5.045952;0.121202;0.272786;-0.056378;-0.634033;0.298096;-0.391113;0.745535;-0.054042;-0.631673;-0.205536
29335;13.798503;-3.878240;5.663475;-0.066454;0.308228;0.175505;-0.622559;0.298340;-0.392578;0.747457;-0.054901;-0.629568;-0.204790
29336;16.230057;-4.351182;6.249186;-0.194046;0.427842;0.411806;-0.619873;0.316895;-0.401855;0.750338;-0.057591;-0.626379;-0.203288
29337;16.864897;-4.211590;5.892514;-0.277521;0.575997;0.687982;-0.614014;0.317383;-0.404053;0.754388;-0.061994;-0.621960;-0.200552
29338;14.604983;-3.431021;4.730806;-0.485596;0.655749;1.057928;-0.603760;0.333984;-0.407227;0.759291;-0.069487;-0.616443;-0.196587
29339;11.467178;-2.986224;3.410055;-0.720476;0.588851;1.526797;-0.588379;0.349854;-0.411621;0.764349;-0.080974;-0.610585;-0.190785
29340;9.594112;-3.129608;3.069356;-0.662311;0.459117;2.054568;-0.563232;0.368896;-0.409180;0.769407;-0.094961;-0.605119;-0.181181
29341;8.978765;-3.253969;3.255230;-0.271188;0.358922;2.538744;-0.551025;0.414307;-0.415527;0.774686;-0.108996;-0.600258;-0.166347
29342;9.150742;-3.298813;3.490094;0.216783;0.331290;2.897106;-0.542480;0.427979;-0.412109;0.780352;-0.121653;-0.595607;-0.146643
29343;9.968598;-3.592516;3.412735;0.625787;0.373433;3.165238;-0.515869;0.450928;-0.417480;0.786444;-0.132850;-0.590509;-0.123110
29344;11.125554;-3.804631;3.118435;0.905167;0.447362;3.353698;-0.486328;0.468018;-0.428711;0.792771;-0.142961;-0.584531;-0.096951
29345;12.281073;-3.703449;2.767823;1.064542;0.545258;3.437511;-0.468262;0.488281;-0.442871;0.799122;-0.152221;-0.577412;-0.069491
29346;13.364012;-3.556799;2.592020;1.081760;0.683659;3.440350;-0.427490;0.499756;-0.447998;0.805411;-0.161158;-0.568836;-0.042041
29347;13.950595;-3.200836;2.409188;0.955078;0.836006;3.364930;-0.398438;0.507812;-0.462646;0.811478;-0.170384;-0.558768;-0.015863
29348;13.404959;-2.930148;2.170976;0.683011;0.964324;3.254230;-0.362793;0.526367;-0.469238;0.817030;-0.180770;-0.547466;0.008129
29349;12.307748;-2.677957;1.836656;0.317925;1.027375;3.128982;-0.333740;0.536133;-0.480469;0.821668;-0.192929;-0.535509;0.029498
29350;11.276568;-2.537437;1.518078;-0.087415;1.026856;3.031438;-0.294189;0.551514;-0.485840;0.825063;-0.207284;-0.523416;0.048365
29351;10.141083;-2.574485;1.307087;-0.423721;0.970112;2.966615;-0.259521;0.568115;-0.484863;0.827070;-0.223499;-0.511594;0.065380
29352;9.145026;-2.669590;1.191510;-0.626774;0.883755;2.920679;-0.230469;0.583008;-0.479248;0.827784;-0.240717;-0.500215;0.081325
29353;8.319608;-2.855780;1.017786;-0.661227;0.791823;2.852765;-0.196777;0.595215;-0.478027;0.827541;-0.257668;-0.489301;0.096784
29354;7.646792;-3.002598;0.755444;-0.479344;0.706527;2.746620;-0.162354;0.604736;-0.478027;0.826918;-0.272705;-0.478760;0.112372
29355;6.990323;-2.753064;0.627860;-0.138829;0.614974;2.579881;-0.144043;0.609131;-0.474121;0.826412;-0.284499;-0.468656;0.128315
29356;6.524027;-2.472609;0.637941;0.118478;0.508690;2.430075;-0.114258;0.621094;-0.467773;0.825877;-0.293690;-0.459147;0.144419
29357;6.366935;-2.682556;0.871280;0.235780;0.437113;2.292227;-0.083984;0.616943;-0.472412;0.825181;-0.301340;-0.450141;0.160136
29358;6.378793;-3.103962;1.093065;0.364226;0.426733;2.139562;-0.068848;0.614258;-0.478760;0.824671;-0.307409;-0.441255;0.175248
29359;6.226267;-3.025371;1.193775;0.567621;0.450329;1.928584;-0.044189;0.612061;-0.493896;0.824811;-0.311241;-0.432309;0.189537
29360;6.146629;-2.352330;1.276562;0.648882;0.473093;1.656672;-0.030762;0.604492;-0.492676;0.825452;-0.313486;-0.423669;0.202137
29361;6.636313;-1.911107;1.408442;0.518844;0.463702;1.346609;-0.021484;0.593018;-0.489502;0.826078;-0.315453;-0.416038;0.212124
29362;6.983584;-1.854397;1.470642;0.348386;0.438383;1.025845;-0.004639;0.597412;-0.497070;0.826630;-0.317394;-0.409673;0.219345
29363;7.236180;-1.752843;1.540694;0.176150;0.397947;0.717229;0.009033;0.591553;-0.500732;0.827092;-0.319369;-0.404689;0.223939
29364;7.577688;-1.613296;1.689497;0.003779;0.348929;0.404235;0.019043;0.587646;-0.498047;0.827487;-0.321372;-0.401185;0.225910
29365;8.174853;-1.631615;1.870294;-0.125687;0.276828;0.074067;0.024658;0.587891;-0.492920;0.827906;-0.323021;-0.399303;0.225356
29366;9.015163;-1.824932;2.011938;-0.155411;0.168299;-0.263103;0.021240;0.584717;-0.500488;0.828513;-0.323545;-0.399133;0.222661
29367;9.646227;-1.958133;2.153880;-0.100226;0.039827;-0.585417;0.016602;0.594727;-0.497803;0.829427;-0.322370;-0.400612;0.218261
29368;9.961609;-1.913699;2.378509;-0.004982;-0.114409;-0.919781;0.011230;0.585449;-0.488037;0.830659;-0.319122;-0.403868;0.212267
29369;10.516208;-1.769424;2.633791;0.057443;-0.279871;-1.306419;-0.004639;0.590088;-0.494385;0.832110;-0.313817;-0.409154;0.204220
29370;11.609612;-1.998496;2.639454;0.147127;-0.448609;-1.770067;-0.019775;0.590820;-0.502441;0.833863;-0.305962;-0.416599;0.193663
29371;12.376163;-2.195569;2.293226;0.364629;-0.669214;-2.303239;-0.049072;0.586426;-0.499512;0.836001;-0.294288;-0.426455;0.180649
29372;12.052294;-2.024867;2.275673;0.644227;-0.967335;-2.837332;-0.078857;0.573730;-0.500244;0.838126;-0.278160;-0.439053;0.165538
29373;10.480927;-2.014288;2.778082;0.854095;-1.254560;-3.204174;-0.124023;0.555908;-0.504150;0.839556;-0.258614;-0.453887;0.149168
29374;9.115062;-2.241940;3.699073;0.998076;-1.435200;-3.385950;-0.163330;0.536865;-0.511230;0.840050;-0.236903;-0.469773;0.132315
29375;9.358346;-2.780341;4.389219;1.170979;-1.519193;-3.424269;-0.196777;0.513916;-0.517578;0.839726;-0.213491;-0.485644;0.115896
29376;10.971533;-3.329897;4.897390;1.558178;-1.527060;-3.349681;-0.246582;0.490967;-0.517822;0.839072;-0.187431;-0.500536;0.101452
29377;12.257351;-3.293513;5.032643;2.043179;-1.446543;-3.138634;-0.275146;0.456299;-0.520996;0.838397;-0.158717;-0.513568;0.090265
29378;13.076366;-2.872641;4.666740;2.278118;-1.364861;-2.848330;-0.299561;0.417236;-0.525146;0.837252;-0.129493;-0.524912;0.081904
29379;13.590924;-2.219378;3.942893;2.168794;-1.318265;-2.542709;-0.341309;0.382080;-0.534912;0.835167;-0.102271;-0.535166;0.075065
29380;13.319084;-1.216800;3.568163;1.733021;-1.326246;-2.231388;-0.361328;0.358398;-0.542236;0.831820;-0.079383;-0.545064;0.068397
29381;12.140728;-0.433415;4.074186;1.003782;-1.359578;-2.004956;-0.380859;0.326172;-0.536621;0.827229;-0.062511;-0.555147;0.059968
29382;11.402120;-0.501302;4.917469;0.174182;-1.329361;-1.857231;-0.403076;0.309814;-0.528320;0.821923;-0.052029;-0.565125;0.048676
29383;10.529982;-1.172005;5.106887;-0.447177;-1.205716;-1.773080;-0.419189;0.306152;-0.521484;0.816608;-0.046229;-0.574275;0.034963
29384;9.583669;-1.718994;4.509350;-0.785926;-1.045041;-1.713567;-0.435059;0.297363;-0.503418;0.811647;-0.043052;-0.582217;0.019960
29385;8.768355;-1.966139;3.722527;-0.959069;-0.902486;-1.671417;-0.458008;0.298096;-0.495117;0.807051;-0.041260;-0.589022;0.004344
29386;8.177017;-2.187052;3.272595;-1.045355;-0.796802;-1.672756;-0.469971;0.300049;-0.492920;0.802691;-0.040032;-0.594934;-0.011739
29387;7.874774;-2.521269;3.057072;-1.079495;-0.706980;-1.708610;-0.488037;0.297363;-0.469727;0.798508;-0.038835;-0.600065;-0.028256
29388;7.742246;-2.730112;3.023759;-1.096798;-0.631432;-1.737199;-0.498047;0.287842;-0.467529;0.794437;-0.037580;-0.604506;-0.045063
29389;7.655717;-2.791440;3.102383;-1.142738;-0.560646;-1.743923;-0.505615;0.291504;-0.461670;0.790450;-0.036557;-0.608268;-0.062150
29390;7.531118;-2.765613;3.201284;-1.206677;-0.500009;-1.741368;-0.510010;0.293701;-0.449463;0.786496;-0.035927;-0.611397;-0.079539
29391;7.482898;-2.812835;3.265128;-1.267354;-0.450446;-1.725467;-0.531006;0.291992;-0.437256;0.782529;-0.035731;-0.613954;-0.097119
29392;7.647168;-2.951272;3.325615;-1.260273;-0.416990;-1.717419;-0.541260;0.278809;-0.444824;0.778486;-0.035493;-0.616093;-0.114584
29393;8.007942;-3.147328;3.631986;-1.263156;-0.403712;-1.676281;-0.542480;0.286621;-0.425537;0.774301;-0.035462;-0.617932;-0.131760
29394;8.372114;-3.754004;4.021409;-1.240989;-0.381699;-1.602289;-0.559326;0.284424;-0.424561;0.770083;-0.035635;-0.619441;-0.148308
29395;8.486985;-4.292612;4.422393;-1.078449;-0.333195;-1.503666;-0.558594;0.276611;-0.419922;0.766080;-0.035208;-0.620643;-0.163353
29396;8.566618;-4.486135;4.683360;-0.822500;-0.285225;-1.349461;-0.565186;0.265869;-0.412354;0.762451;-0.033874;-0.621709;-0.176065
29397;8.928418;-4.451591;4.870436;-0.578234;-0.258775;-1.169064;-0.574219;0.268311;-0.409424;0.759181;-0.031882;-0.622819;-0.186342
29398;9.858354;-4.495994;5.200930;-0.352232;-0.241917;-0.965954;-0.584473;0.263184;-0.409912;0.756303;-0.029488;-0.624056;-0.194141
29399;10.701025;-4.464111;5.506431;-0.166889;-0.204044;-0.721824;-0.583008;0.248291;-0.400879;0.754021;-0.027137;-0.625256;-0.199430
29400;11.085556;-4.421519;5.754153;-0.039129;-0.160214;-0.447415;-0.580811;0.250488;-0.397461;0.752434;-0.025343;-0.626310;-0.202327
29401;11.271988;-4.090834;5.797405;0.014147;-0.127614;-0.149661;-0.585449;0.248291;-0.406006;0.751528;-0.024718;-0.627179;-0.203080
29402;11.139494;-3.660791;5.637633;-0.042180;-0.100035;0.163962;-0.581787;0.253662;-0.400879;0.751287;-0.026041;-0.627710;-0.202162
29403;11.256131;-3.729514;5.669699;-0.151574;-0.124572;0.479248;-0.583740;0.250732;-0.390137;0.751420;-0.029744;-0.628133;-0.199830
29404;13.022112;-4.811824;6.601738;-0.057403;-0.081427;0.763453;-0.586426;0.264648;-0.389404;0.752255;-0.034276;-0.628351;-0.195225
29405;14.134180;-5.367149;6.936768;0.289742;0.103400;1.023029;-0.577393;0.266113;-0.387695;0.754537;-0.037692;-0.627858;-0.187210
29406;13.759897;-5.124321;6.175932;0.652620;0.328889;1.296678;-0.575928;0.271973;-0.408203;0.758454;-0.039906;-0.626349;-0.175617
29407;11.776352;-3.855575;4.586489;0.828229;0.529072;1.634476;-0.561523;0.273438;-0.415527;0.763816;-0.042477;-0.623587;-0.160998
29408;10.238696;-2.644901;3.363971;0.789328;0.622784;2.039698;-0.558594;0.290771;-0.414551;0.769959;-0.047265;-0.619837;-0.143980
29409;9.700749;-2.211864;2.990785;0.687800;0.681983;2.483968;-0.540771;0.303711;-0.429688;0.776571;-0.054909;-0.615141;-0.124594
29410;9.736323;-2.253231;2.971963;0.718383;0.719385;2.886530;-0.518799;0.318359;-0.429688;0.783357;-0.064348;-0.609694;-0.102390
29411;10.289206;-2.230383;2.933254;0.806470;0.763296;3.187464;-0.495605;0.338867;-0.440186;0.790101;-0.074658;-0.603428;-0.077721
29412;11.324516;-2.338080;2.856742;0.869399;0.812822;3.396721;-0.476318;0.355713;-0.455566;0.796594;-0.085511;-0.596232;-0.051321
29413;12.630313;-2.472751;2.917134;0.915252;0.883447;3.507546;-0.449707;0.370117;-0.457520;0.802767;-0.096498;-0.587944;-0.023959
29414;13.924485;-2.384013;2.956157;0.915137;0.985147;3.510962;-0.425781;0.381104;-0.470947;0.808650;-0.107388;-0.578396;0.003368
29415;14.456522;-1.976692;2.829237;0.764677;1.119048;3.424551;-0.395996;0.394287;-0.478516;0.814260;-0.118774;-0.567466;0.029265
29416;13.868590;-1.634886;2.462768;0.427869;1.219047;3.290680;-0.367676;0.413086;-0.493652;0.819296;-0.131727;-0.555555;0.052533
29417;12.977641;-1.396989;2.003929;-0.044023;1.257427;3.142548;-0.338135;0.425293;-0.496094;0.823368;-0.147122;-0.543287;0.072517
29418;12.059812;-1.273703;1.623463;-0.549099;1.236448;2.999229;-0.315186;0.455566;-0.505127;0.826167;-0.165204;-0.531224;0.089198
29419;11.041314;-1.452186;1.384621;-0.951938;1.171974;2.853668;-0.283447;0.470703;-0.494141;0.827618;-0.185242;-0.519713;0.103112
29420;10.134230;-1.721549;1.222043;-1.158028;1.071129;2.713986;-0.254395;0.492432;-0.496826;0.827844;-0.205878;-0.508927;0.115249
29421;9.501583;-1.997169;1.186505;-1.210354;0.962203;2.585368;-0.229980;0.520996;-0.494629;0.827091;-0.226087;-0.498830;0.126384
29422;9.086694;-2.262047;1.168746;-1.113030;0.874299;2.455463;-0.197510;0.545410;-0.488525;0.825796;-0.244857;-0.489188;0.137115
29423;8.531515;-2.350868;1.082701;-0.843874;0.803402;2.306725;-0.181885;0.554199;-0.479248;0.824505;-0.260960;-0.479782;0.147990
29424;7.668744;-1.987838;0.956284;-0.492405;0.694431;2.154993;-0.164307;0.567627;-0.482666;0.823379;-0.273796;-0.470823;0.159399
29425;6.943583;-1.572072;0.784201;-0.223777;0.564193;1.999147;-0.132568;0.569336;-0.487061;0.822281;-0.283910;-0.462598;0.171031
29426;6.478149;-1.367082;0.779858;-0.019453;0.428015;1.821734;-0.112061;0.579102;-0.484619;0.821167;-0.291667;-0.455311;0.182505
29427;6.444476;-1.183982;1.024848;0.113397;0.327065;1.615080;-0.110352;0.574219;-0.487793;0.820126;-0.297511;-0.448917;0.193271
29428;6.884003;-1.025948;1.372953;0.146658;0.263698;1.382825;-0.087646;0.573242;-0.485596;0.819169;-0.302106;-0.443406;0.202695
29429;7.075377;-0.946454;1.451185;0.126118;0.245966;1.114150;-0.074219;0.580322;-0.489502;0.818453;-0.305780;-0.438678;0.210225
29430;6.887780;-0.875594;1.333453;0.075462;0.232018;0.842945;-0.070801;0.574219;-0.482422;0.817973;-0.308759;-0.434795;0.215734
29431;6.921906;-0.840317;1.207536;-0.005580;0.201920;0.578520;-0.072998;0.575684;-0.486572;0.817618;-0.311263;-0.431929;0.219211
29432;7.593429;-0.950221;1.286570;-0.081302;0.163532;0.305013;-0.063477;0.582031;-0.491455;0.817415;-0.313220;-0.430167;0.220642
29433;8.445827;-1.095597;1.509923;-0.144091;0.129012;0.015952;-0.064453;0.581787;-0.491699;0.817451;-0.314500;-0.429511;0.219962
29434;8.998285;-1.205120;1.672348;-0.194328;0.091455;-0.289747;-0.055664;0.581055;-0.493652;0.817779;-0.314954;-0.430006;0.217111
29435;9.255425;-1.288566;1.725853;-0.265671;0.018004;-0.625680;-0.062744;0.579590;-0.489746;0.818248;-0.314547;-0.432008;0.211897
29436;9.438262;-1.524760;1.731558;-0.343904;-0.102228;-0.971357;-0.072021;0.586914;-0.490723;0.818647;-0.313196;-0.435855;0.204342
29437;10.253796;-1.942618;1.855173;-0.378523;-0.259001;-1.347396;-0.089600;0.585693;-0.486572;0.818941;-0.310411;-0.441769;0.194477
29438;11.903676;-2.372823;1.998053;-0.311308;-0.436585;-1.799025;-0.117920;0.583984;-0.480469;0.819329;-0.305153;-0.449874;0.182193
29439;12.816445;-2.702723;2.043785;-0.134596;-0.656741;-2.269932;-0.133789;0.594238;-0.485352;0.819798;-0.296488;-0.460274;0.167852
29440;12.028437;-3.111537;2.302968;0.124640;-0.920522;-2.706721;-0.169922;0.576660;-0.477051;0.820112;-0.283862;-0.472978;0.152086
29441;10.495374;-3.379796;3.063977;0.434478;-1.167060;-3.021591;-0.198242;0.564453;-0.476318;0.820049;-0.267376;-0.487412;0.135869
29442;9.978344;-3.956415;4.150176;0.770603;-1.309412;-3.177602;-0.237061;0.548828;-0.476318;0.819673;-0.247580;-0.502397;0.120156
29443;11.112479;-4.562691;5.234339;1.263262;-1.308368;-3.160640;-0.278809;0.521973;-0.478516;0.819568;-0.224269;-0.516399;0.106510
29444;11.729282;-4.535522;5.473176;1.839797;-1.165715;-2.984721;-0.310059;0.487793;-0.492920;0.820228;-0.197692;-0.528104;0.096178
29445;11.551644;-3.497741;4.721854;2.156922;-1.034059;-2.715802;-0.325684;0.451904;-0.493408;0.821010;-0.170051;-0.537721;0.088774
29446;11.874308;-2.566801;3.616290;2.080239;-0.963870;-2.391085;-0.361816;0.412598;-0.507568;0.821069;-0.144297;-0.546006;0.083074
29447;11.993178;-1.761652;2.898060;1.819199;-0.966222;-2.082894;-0.379639;0.385254;-0.502686;0.820029;-0.121629;-0.553749;0.078240
29448;11.806475;-0.924978;2.953952;1.415851;-1.002773;-1.835734;-0.395996;0.362793;-0.506592;0.817820;-0.102769;-0.561468;0.073229
29449;11.272663;-0.354717;3.701188;0.759472;-1.003666;-1.641244;-0.413574;0.331543;-0.510742;0.814621;-0.089251;-0.569221;0.066445
29450;10.670311;-0.416806;4.318146;-0.138940;-0.932971;-1.544648;-0.435059;0.329590;-0.500488;0.810819;-0.082303;-0.576770;0.055983
29451;10.005001;-1.355424;4.399824;-0.974314;-0.802751;-1.526166;-0.447998;0.330811;-0.485840;0.806860;-0.081127;-0.583671;0.041525
29452;9.308520;-2.175965;3.925015;-1.478390;-0.641391;-1.523274;-0.454102;0.338623;-0.475342;0.803097;-0.083383;-0.589476;0.024512
29453;8.709012;-2.484203;3.390318;-1.745027;-0.492096;-1.546373;-0.473877;0.336914;-0.469482;0.799592;-0.087310;-0.594133;0.005923
29454;8.380257;-2.839723;2.885877;-1.858108;-0.363325;-1.622313;-0.480469;0.346680;-0.461670;0.796318;-0.091585;-0.597745;-0.013828
29455;8.227458;-3.372975;2.558531;-1.807662;-0.254279;-1.727722;-0.482910;0.352783;-0.444580;0.793268;-0.094947;-0.600457;-0.034103
29456;8.191324;-3.834428;2.405666;-1.624596;-0.166871;-1.811336;-0.500244;0.349609;-0.435059;0.790439;-0.096616;-0.602452;-0.054066
29457;8.166503;-3.983158;2.395584;-1.386042;-0.097071;-1.861204;-0.508789;0.351562;-0.436035;0.787821;-0.096396;-0.603895;-0.073191
29458;8.061374;-3.943842;2.524479;-1.152791;-0.049628;-1.890267;-0.519043;0.342773;-0.422607;0.785330;-0.094436;-0.604975;-0.091342
29459;8.068327;-3.808738;2.753835;-0.986586;-0.027897;-1.894048;-0.524414;0.338623;-0.427002;0.782821;-0.091324;-0.605842;-0.108661
29460;8.094124;-3.669651;2.957310;-0.934460;-0.023795;-1.858518;-0.538330;0.322021;-0.418213;0.780164;-0.088021;-0.606513;-0.125451
29461;8.161259;-3.659096;3.191691;-0.968610;-0.024079;-1.794244;-0.542969;0.319092;-0.418457;0.777320;-0.085241;-0.606924;-0.141953
29462;8.264232;-3.583085;3.370323;-1.052627;-0.029685;-1.685715;-0.545166;0.322266;-0.408203;0.774301;-0.083540;-0.607021;-0.158130
29463;8.347004;-3.654486;3.560215;-1.170719;-0.038809;-1.523379;-0.561523;0.316895;-0.414307;0.771163;-0.083419;-0.606745;-0.173807
29464;8.208059;-3.927840;3.695466;-1.208689;-0.050700;-1.325357;-0.556885;0.310791;-0.403809;0.768045;-0.084538;-0.606206;-0.188346
29465;7.953901;-4.232080;3.842744;-1.124892;-0.083460;-1.091604;-0.565918;0.316406;-0.403809;0.765040;-0.086341;-0.605721;-0.200901
29466;8.132948;-4.649289;4.103669;-0.928648;-0.116648;-0.850815;-0.579102;0.312012;-0.387207;0.762306;-0.088156;-0.605516;-0.210874
29467;8.695972;-5.184498;4.390267;-0.603862;-0.134424;-0.596801;-0.572266;0.311035;-0.388184;0.760110;-0.089219;-0.605756;-0.217559
29468;9.541479;-5.566552;4.677578;-0.181688;-0.134251;-0.333020;-0.573975;0.308350;-0.387695;0.758687;-0.088942;-0.606543;-0.220430
29469;10.298014;-5.568937;4.695605;0.219616;-0.101958;-0.061337;-0.567871;0.311523;-0.391602;0.758222;-0.087447;-0.607653;-0.219570
29470;10.704152;-5.204443;4.502082;0.516037;-0.075588;0.213618;-0.574951;0.305908;-0.398438;0.758603;-0.085428;-0.608926;-0.215482
29471;11.501597;-4.847385;4.535603;0.663267;-0.091493;0.480455;-0.572754;0.309082;-0.383789;0.759464;-0.083863;-0.610350;-0.208935
29472;13.540835;-5.163394;5.476154;0.750015;-0.051603;0.708836;-0.576172;0.300537;-0.391357;0.760943;-0.082842;-0.611472;-0.200509
29473;15.559720;-5.327672;6.304627;0.825192;0.103069;0.933757;-0.575928;0.300049;-0.396484;0.763572;-0.082230;-0.611523;-0.190356
29474;15.563030;-4.731310;6.033535;0.791343;0.329142;1.177052;-0.558838;0.309814;-0.404053;0.767620;-0.082710;-0.609832;-0.178951
29475;12.840013;-3.329218;4.675308;0.468938;0.495749;1.494201;-0.553955;0.310303;-0.414062;0.772639;-0.086608;-0.606268;-0.167235
29476;10.451223;-2.558302;3.251815;0.045024;0.518900;1.923617;-0.536133;0.333252;-0.419189;0.777888;-0.095353;-0.601509;-0.154868
29477;9.169144;-2.389544;2.631717;-0.185143;0.459177;2.431941;-0.536133;0.356934;-0.417480;0.783035;-0.108186;-0.596221;-0.140256
29478;9.226009;-2.556834;2.712285;-0.104548;0.383033;2.864750;-0.517822;0.364746;-0.422852;0.787982;-0.122678;-0.590832;-0.122279
29479;9.823384;-2.658777;2.954076;0.149169;0.347446;3.164350;-0.502686;0.399658;-0.424561;0.792807;-0.136925;-0.585248;-0.100958
29480;10.842165;-2.949369;3.042641;0.427090;0.348940;3.346109;-0.474609;0.420898;-0.434814;0.797507;-0.150129;-0.579234;-0.077014
29481;12.198091;-2.984567;2.984041;0.661144;0.371928;3.424098;-0.458252;0.445068;-0.440430;0.801998;-0.162010;-0.572635;-0.051381
29482;13.530194;-2.893231;2.879569;0.790727;0.422911;3.397040;-0.430664;0.459473;-0.451904;0.806200;-0.172737;-0.565297;-0.025339
29483;14.182219;-2.786655;2.715275;0.826474;0.496609;3.292554;-0.405518;0.479248;-0.459717;0.810100;-0.182566;-0.557143;0.000087
29484;13.687539;-2.647447;2.421938;0.778721;0.571288;3.141464;-0.384277;0.482422;-0.469482;0.813632;-0.191876;-0.548274;0.024153
29485;12.671616;-2.262679;2.066304;0.630446;0.628662;2.992572;-0.365234;0.502930;-0.479736;0.816633;-0.201381;-0.538889;0.046422
29486;11.457577;-1.903334;1.713117;0.375652;0.650650;2.843191;-0.334229;0.513916;-0.482666;0.818835;-0.211828;-0.529360;0.066460
29487;10.217251;-1.724055;1.450046;0.114995;0.626399;2.700729;-0.309814;0.514648;-0.489502;0.820078;-0.223287;-0.520091;0.084377
29488;9.277930;-1.742444;1.273770;-0.083261;0.563545;2.567437;-0.285889;0.538574;-0.498291;0.820353;-0.235363;-0.511377;0.100594
29489;8.665324;-1.956799;1.211522;-0.191078;0.477974;2.436524;-0.256348;0.548828;-0.493652;0.819783;-0.247436;-0.503363;0.115573
29490;8.119863;-2.181849;1.247910;-0.225082;0.381597;2.309021;-0.244629;0.564453;-0.499023;0.818523;-0.259010;-0.496100;0.129687
29491;7.635831;-2.371446;1.470667;-0.186664;0.303111;2.176051;-0.218750;0.572998;-0.499756;0.816866;-0.269591;-0.489440;0.143172
29492;7.257495;-2.573165;1.533184;-0.070000;0.248086;2.032427;-0.207031;0.576904;-0.493896;0.815159;-0.278639;-0.483186;0.156229
29493;6.940950;-2.547374;1.402627;0.085150;0.203365;1.883114;-0.183594;0.578857;-0.497559;0.813603;-0.285896;-0.477251;0.168954
29494;6.641855;-2.513162;1.304219;0.216689;0.165834;1.725575;-0.163574;0.586670;-0.505615;0.812242;-0.291513;-0.471652;0.181181
29495;6.482937;-2.457252;1.283211;0.325781;0.132625;1.563488;-0.148926;0.582520;-0.500732;0.811101;-0.295646;-0.466416;0.192781
29496;6.435350;-2.353251;1.338011;0.380173;0.119935;1.390311;-0.138184;0.583252;-0.499268;0.810190;-0.298667;-0.461532;0.203419
29497;6.495421;-2.319727;1.424065;0.388135;0.127888;1.188928;-0.126953;0.579590;-0.519775;0.809565;-0.300833;-0.457025;0.212677
29498;6.732230;-2.311362;1.516125;0.380502;0.155418;0.969895;-0.117920;0.575195;-0.515625;0.809339;-0.302235;-0.452854;0.220336
29499;7.019597;-2.214422;1.478525;0.339800;0.186403;0.750574;-0.112305;0.571045;-0.516113;0.809478;-0.303118;-0.449076;0.226266
29500;7.343298;-2.140315;1.444789;0.246187;0.204063;0.523044;-0.102539;0.571045;-0.525635;0.809844;-0.303801;-0.445915;0.230253
29501;7.633696;-2.039319;1.441966;0.122175;0.202785;0.304541;-0.096924;0.577637;-0.520996;0.810297;-0.304497;-0.443551;0.232299
29502;8.052780;-1.940327;1.500839;-0.035690;0.169414;0.076282;-0.103516;0.575195;-0.521973;0.810663;-0.305346;-0.442298;0.232299
29503;8.662724;-2.011817;1.563623;-0.188510;0.113917;-0.172503;-0.105225;0.576904;-0.521484;0.810914;-0.306198;-0.442351;0.230190
29504;8.785090;-2.203723;1.573956;-0.266300;0.033112;-0.426383;-0.098877;0.580322;-0.520996;0.811147;-0.306476;-0.443748;0.226276
29505;8.401651;-2.238959;1.636687;-0.264245;-0.108331;-0.678291;-0.105225;0.576904;-0.523438;0.811315;-0.305530;-0.446733;0.221016
29506;8.707436;-2.284929;1.745475;-0.258195;-0.284401;-0.982862;-0.116211;0.585938;-0.520020;0.811358;-0.303064;-0.451652;0.214151
29507;9.936914;-2.636916;1.971245;-0.187315;-0.478123;-1.373908;-0.129150;0.582764;-0.515869;0.811457;-0.298262;-0.458695;0.205368
29508;11.858560;-3.145239;2.140697;0.005241;-0.673024;-1.857244;-0.162354;0.578369;-0.511475;0.811946;-0.289909;-0.467836;0.194489
29509;13.062848;-3.484696;2.390113;0.292311;-0.861971;-2.334175;-0.179932;0.571533;-0.518555;0.812876;-0.277341;-0.478782;0.181884
29510;12.200449;-3.698894;2.942914;0.531232;-1.032943;-2.686555;-0.215332;0.560059;-0.520264;0.813789;-0.261341;-0.491098;0.168142
29511;10.638459;-3.706737;3.626689;0.718908;-1.165458;-2.893382;-0.245117;0.539307;-0.519043;0.814323;-0.242860;-0.504182;0.153940
29512;9.266643;-3.680124;4.173392;0.955470;-1.189724;-2.907830;-0.289307;0.516602;-0.519043;0.814654;-0.222500;-0.516790;0.140568
29513;8.100602;-3.401770;4.354627;1.219651;-1.159675;-2.756043;-0.320312;0.485107;-0.525635;0.814824;-0.200869;-0.528223;0.129204
29514;8.275574;-2.994470;4.369443;1.475434;-1.063781;-2.541354;-0.346191;0.454834;-0.522705;0.815039;-0.178406;-0.537997;0.120174
29515;9.403583;-2.541634;4.227899;1.635264;-0.862666;-2.310042;-0.374756;0.414795;-0.531250;0.815634;-0.155978;-0.545555;0.113055
