// Start Time: Unknown
// Update Rate: 60.0Hz
// Filter Profile: human (46.1)
// Firmware Version: 4.4.0
PacketCounter;Acc_X;Acc_Y;Acc_Z;Gyr_X;Gyr_Y;Gyr_Z;Mag_X;Mag_Y;Mag_Z;Quat_q0;Quat_q1;Quat_q2;Quat_q3
28597;9.478544;2.304355;1.014515;0.115573;0.006008;0.023340;-0.706055;0.182617;-0.373047;0.632299;-0.206753;-0.636743;-0.389884
28598;9.454777;2.258660;1.043687;0.118596;0.000786;0.021659;-0.708008;0.187012;-0.369141;0.632577;-0.206240;-0.637086;-0.389142
28599;9.474577;2.312683;1.021596;0.149751;-0.007461;0.019127;-0.715088;0.186035;-0.366699;0.632854;-0.205585;-0.637579;-0.388231
28600;9.484877;2.372588;1.081376;0.128864;-0.013604;0.011956;-0.708252;0.180908;-0.364990;0.633041;-0.205012;-0.638047;-0.387460
28601;9.566184;2.359455;1.123314;0.105304;-0.011040;0.015375;-0.707031;0.193359;-0.375488;0.633212;-0.204573;-0.638417;-0.386802
28602;9.585841;2.413393;1.102754;0.059756;0.005002;0.014792;-0.709717;0.183350;-0.368652;0.633391;-0.204316;-0.638554;-0.386418
28603;9.542824;2.312145;1.025273;-0.002350;0.018167;0.019625;-0.711182;0.182861;-0.370361;0.633551;-0.204367;-0.638411;-0.386366
28604;9.447092;2.181689;0.976532;-0.019928;0.010917;0.017704;-0.710449;0.191895;-0.369873;0.633636;-0.204524;-0.638252;-0.386405
28605;9.459127;2.248208;1.026701;-0.017175;0.005152;0.016893;-0.709229;0.178955;-0.364258;0.633695;-0.204686;-0.638133;-0.386419
28606;9.549026;2.135886;1.040114;0.011594;0.009578;0.016059;-0.718750;0.175781;-0.372559;0.633826;-0.204679;-0.638083;-0.386292
28607;9.526936;2.178089;1.107590;0.050855;0.015588;0.012748;-0.705322;0.174805;-0.376953;0.634051;-0.204435;-0.638128;-0.385977
28608;9.557664;2.288392;1.110014;0.045853;0.020998;0.009611;-0.706787;0.180664;-0.369141;0.634295;-0.204189;-0.638125;-0.385712
28609;9.536983;2.302008;1.070661;0.025650;0.027511;0.001226;-0.706055;0.180420;-0.370605;0.634517;-0.203983;-0.638030;-0.385612
28610;9.526800;2.229728;0.977430;0.014260;0.022987;-0.012516;-0.703369;0.181152;-0.372803;0.634653;-0.203777;-0.637944;-0.385640
28611;9.375680;2.171870;0.955491;-0.010926;-0.002003;-0.021965;-0.717041;0.183594;-0.375000;0.634583;-0.203739;-0.637926;-0.385805
28612;9.404383;2.500309;0.969473;-0.104248;-0.043301;-0.052705;-0.708740;0.179443;-0.375488;0.634038;-0.204172;-0.637878;-0.386550
28613;9.532925;3.183488;1.097798;-0.402334;-0.076682;-0.064391;-0.713867;0.182373;-0.367432;0.632752;-0.206206;-0.637075;-0.388897
28614;9.617685;3.130538;1.089934;-0.873821;-0.085090;-0.043507;-0.715576;0.187500;-0.371094;0.630627;-0.210789;-0.634749;-0.393664
28615;9.453029;1.784542;1.211607;-0.992494;-0.068352;-0.003834;-0.707031;0.193359;-0.359619;0.628450;-0.216073;-0.631852;-0.398907
28616;9.522087;1.013483;1.334603;-0.654804;-0.056310;0.028518;-0.711914;0.194580;-0.356445;0.627053;-0.219767;-0.629893;-0.402171
28617;9.587290;0.978580;1.342635;-0.156827;-0.019868;0.047617;-0.713379;0.195801;-0.356934;0.626883;-0.220922;-0.629311;-0.402714
28618;9.610613;1.639477;1.017793;0.215224;0.008616;0.032236;-0.702637;0.195312;-0.360352;0.627563;-0.220047;-0.629801;-0.401366
28619;9.497238;2.240196;0.768207;0.273206;0.017526;0.032495;-0.710205;0.206299;-0.354492;0.628403;-0.218891;-0.630434;-0.399687
28620;9.418014;2.317178;0.738685;0.126057;0.000190;0.030436;-0.719971;0.199707;-0.355957;0.628856;-0.218558;-0.630708;-0.398724
28621;9.534568;2.112897;0.740401;0.042296;-0.029430;0.033482;-0.717773;0.198242;-0.358398;0.628994;-0.218780;-0.630870;-0.398126
28622;9.607126;1.813288;0.656440;0.144132;-0.050533;0.024461;-0.707031;0.200439;-0.356201;0.629152;-0.218498;-0.631521;-0.396999
28623;9.542850;1.795243;0.716747;0.408301;-0.068524;0.010103;-0.708740;0.197998;-0.356689;0.629606;-0.216805;-0.633214;-0.394502
28624;9.447083;1.974025;0.917038;0.580350;-0.076441;0.015850;-0.720215;0.196289;-0.362793;0.630339;-0.214295;-0.635499;-0.391014
28625;9.490445;2.095612;1.093079;0.595059;-0.066163;0.028358;-0.713379;0.192383;-0.361084;0.631215;-0.211831;-0.637685;-0.387368
28626;9.570436;2.134138;1.169785;0.612255;-0.042108;0.033873;-0.723145;0.185547;-0.366943;0.632241;-0.209147;-0.639790;-0.383663
28627;9.531493;2.286483;1.071677;0.622634;-0.024181;0.022793;-0.721680;0.182373;-0.360840;0.633351;-0.206370;-0.641782;-0.379991
28628;9.518826;2.519115;0.978385;0.648861;-0.018703;0.005065;-0.705811;0.186523;-0.364502;0.634460;-0.203264;-0.643879;-0.376250
28629;9.459328;2.565409;0.903622;0.607164;-0.015485;0.008665;-0.709961;0.175537;-0.370361;0.635500;-0.200198;-0.645805;-0.372822
28630;9.461493;2.666222;0.956125;0.514327;-0.007353;0.013773;-0.718506;0.169189;-0.371582;0.636400;-0.197632;-0.647373;-0.369925
28631;9.541463;2.724970;0.923904;0.378834;0.017583;0.024600;-0.720703;0.164551;-0.372314;0.637226;-0.195806;-0.648361;-0.367736
28632;9.569284;2.570141;0.983066;0.293416;0.044424;0.028308;-0.706787;0.169434;-0.362549;0.638044;-0.194336;-0.648949;-0.366058
28633;9.522673;2.444529;0.897101;0.223135;0.057745;0.023812;-0.720947;0.164307;-0.375244;0.638796;-0.192973;-0.649332;-0.364786
28634;9.517159;2.316884;0.830365;0.181051;0.059481;0.019590;-0.707031;0.162354;-0.375000;0.639483;-0.191978;-0.649493;-0.363820
28635;9.513842;2.211962;0.774838;0.172218;0.047015;0.018748;-0.713379;0.166260;-0.375977;0.640069;-0.190917;-0.649730;-0.362924
28636;9.522488;2.309912;0.717444;0.128603;0.033281;0.021734;-0.720703;0.156982;-0.377686;0.640536;-0.190240;-0.649878;-0.362188
28637;9.478276;2.328650;0.700016;0.063827;0.019740;0.026548;-0.708252;0.161865;-0.379395;0.640806;-0.189978;-0.649924;-0.361766
28638;9.505106;2.279921;0.798131;0.001622;0.016273;0.026258;-0.708008;0.159424;-0.372803;0.640973;-0.189996;-0.649793;-0.361695
28639;9.540066;2.169067;0.826587;-0.018846;0.019269;0.018899;-0.712402;0.166992;-0.376953;0.641073;-0.190050;-0.649647;-0.361752
28640;9.530523;2.110291;0.895535;-0.003101;0.018013;0.017071;-0.710205;0.162842;-0.379639;0.641219;-0.190103;-0.649506;-0.361720
28641;9.600874;2.033774;0.884601;0.047422;0.026506;0.007745;-0.710938;0.162598;-0.382812;0.641469;-0.189772;-0.649481;-0.361494
28642;9.588144;2.086444;0.897489;0.099393;0.041999;0.003191;-0.708984;0.163818;-0.380615;0.641890;-0.189105;-0.649517;-0.361032
28643;9.548551;2.111622;0.896347;0.113191;0.052007;0.006958;-0.713867;0.164795;-0.380615;0.642398;-0.188368;-0.649540;-0.360473
28644;9.556436;2.174349;0.882974;0.113326;0.053982;0.011298;-0.719238;0.171875;-0.380127;0.642923;-0.187689;-0.649546;-0.359879
28645;9.549465;2.229232;0.909709;0.102802;0.045259;0.016976;-0.708740;0.158691;-0.377197;0.643404;-0.187208;-0.649545;-0.359270
28646;9.537820;2.191666;0.827939;0.109186;0.036431;0.016091;-0.707275;0.160645;-0.382812;0.643810;-0.186570;-0.649670;-0.358649
28647;9.511682;2.324204;0.825485;0.102446;0.025060;0.011202;-0.709961;0.147461;-0.388672;0.644164;-0.185988;-0.649801;-0.358078
28648;9.469161;2.378118;0.945305;0.054048;0.015664;0.009644;-0.706787;0.165283;-0.377930;0.644370;-0.185564;-0.649865;-0.357811
28649;9.401337;2.203322;0.934200;0.012895;0.008825;0.018089;-0.715332;0.159912;-0.376709;0.644494;-0.185606;-0.649822;-0.357645
28650;9.453485;2.138977;0.959235;0.019510;-0.000826;0.019450;-0.710205;0.166748;-0.385986;0.644530;-0.185629;-0.649891;-0.357440
28651;9.553831;2.148822;0.928723;0.045319;-0.000194;0.017233;-0.708496;0.165771;-0.382812;0.644702;-0.185521;-0.649937;-0.357103
28652;9.583796;2.218895;0.881440;0.046978;0.003311;0.016016;-0.702637;0.160889;-0.386230;0.644874;-0.185385;-0.649991;-0.356764
28653;9.532731;2.147073;0.902572;0.032050;0.001518;0.026552;-0.716797;0.162354;-0.393311;0.645074;-0.185312;-0.649980;-0.356462
28654;9.557571;2.102294;0.819179;0.047381;-0.000789;0.024094;-0.704346;0.159180;-0.388428;0.645283;-0.185181;-0.650011;-0.356094
28655;9.611616;2.256667;0.740477;0.069972;-0.002866;0.007148;-0.705078;0.154785;-0.380859;0.645462;-0.184797;-0.650166;-0.355686
28656;9.529093;1.985589;0.673955;0.054583;-0.009512;0.023795;-0.709961;0.156738;-0.379150;0.645550;-0.184598;-0.650364;-0.355268
28657;9.591806;1.985932;0.756788;0.081021;-0.013160;0.027349;-0.713135;0.159424;-0.381104;0.645640;-0.184341;-0.650675;-0.354667
28658;9.639107;2.058815;0.844421;0.081622;-0.012144;0.031595;-0.717285;0.158203;-0.385010;0.645762;-0.184139;-0.650958;-0.354029
28659;9.592461;2.206993;0.839438;0.081629;-0.017488;0.027190;-0.703857;0.155762;-0.382324;0.645856;-0.183908;-0.651267;-0.353411
28660;9.620602;2.231473;0.847824;0.039601;-0.028409;0.030113;-0.710449;0.162598;-0.388184;0.645862;-0.183901;-0.651495;-0.352983
28661;9.616932;2.144227;0.863890;0.022837;-0.035586;0.037538;-0.703857;0.158447;-0.387207;0.645870;-0.184109;-0.651646;-0.352582
28662;9.591481;2.185532;0.906533;0.027041;-0.039133;0.032775;-0.705566;0.163086;-0.389160;0.645864;-0.184207;-0.651838;-0.352185
28663;9.598327;2.247439;0.848312;0.015802;-0.038965;0.029772;-0.712402;0.156494;-0.380615;0.645864;-0.184393;-0.651966;-0.351851
28664;9.522721;2.328095;0.790077;-0.030392;-0.034812;0.019571;-0.705322;0.159668;-0.379883;0.645649;-0.184743;-0.652070;-0.351870
28665;9.525892;2.332204;0.767663;-0.089983;-0.036101;0.015916;-0.705811;0.155518;-0.381836;0.645365;-0.185410;-0.651976;-0.352214
28666;9.561791;2.287781;0.811290;-0.152436;-0.022082;0.018686;-0.711914;0.168945;-0.381104;0.645075;-0.186295;-0.651628;-0.352921
28667;9.516152;2.027059;0.862633;-0.165769;-0.014937;0.026425;-0.715088;0.162598;-0.381104;0.644831;-0.187460;-0.651146;-0.353639
28668;9.516127;1.969134;0.878659;-0.126070;-0.003014;0.030667;-0.705811;0.170410;-0.373047;0.644690;-0.188295;-0.650757;-0.354167
28669;9.576223;2.011655;0.795611;-0.082152;-0.000657;0.030269;-0.708740;0.166748;-0.376709;0.644622;-0.189026;-0.650467;-0.354434
28670;9.678390;2.010092;0.720533;-0.059388;0.004562;0.027984;-0.705566;0.166016;-0.380127;0.644623;-0.189515;-0.650228;-0.354610
28671;9.636714;2.034958;0.685059;-0.049327;-0.004891;0.023209;-0.710205;0.165283;-0.374756;0.644627;-0.189893;-0.650047;-0.354732
28672;9.652710;2.111251;0.709660;-0.051527;-0.008036;0.023050;-0.712646;0.163086;-0.380859;0.644517;-0.190334;-0.649947;-0.354880
28673;9.622142;2.121980;0.770289;-0.067532;-0.001305;0.019735;-0.705566;0.168701;-0.388184;0.644456;-0.190726;-0.649749;-0.355141
28674;9.562800;2.043594;0.700771;-0.066453;-0.006556;0.025390;-0.709961;0.175781;-0.385254;0.644532;-0.191147;-0.649456;-0.355314
28675;9.534349;2.061999;0.741812;-0.044587;-0.008075;0.021204;-0.711914;0.170654;-0.383789;0.644579;-0.191573;-0.649247;-0.355381
28676;9.514903;2.063610;0.797885;-0.025271;-0.013766;0.022149;-0.716797;0.169189;-0.379150;0.644579;-0.191847;-0.649179;-0.355358
28677;9.527731;2.081268;0.851926;-0.013150;-0.010740;0.017514;-0.706055;0.167725;-0.371094;0.644511;-0.192051;-0.649205;-0.355324
28678;9.556789;2.019805;0.852213;-0.010227;-0.000227;0.011527;-0.702393;0.170166;-0.373779;0.644457;-0.192193;-0.649217;-0.355323
28679;9.605518;2.070096;0.869515;-0.014515;0.010653;0.015545;-0.711182;0.170898;-0.374512;0.644535;-0.192345;-0.649097;-0.355317
28680;9.561645;2.030249;0.818590;-0.011942;0.022919;0.022962;-0.712158;0.169922;-0.388916;0.644655;-0.192516;-0.648938;-0.355298
28681;9.517573;2.048887;0.803959;0.018622;0.022136;0.019507;-0.711670;0.170654;-0.378906;0.644970;-0.192344;-0.648782;-0.355105
28682;9.541997;2.116063;0.748351;0.040797;0.028892;0.009307;-0.710205;0.171875;-0.383789;0.645203;-0.192094;-0.648749;-0.354879
28683;9.642496;1.961090;0.742505;0.089806;0.040725;-0.001943;-0.710449;0.177246;-0.382080;0.645610;-0.191456;-0.648766;-0.354449
28684;9.506275;2.015625;0.809245;0.142869;0.047941;-0.009085;-0.705566;0.167969;-0.372559;0.646105;-0.190600;-0.648898;-0.353767
28685;9.613831;2.145670;0.899068;0.139720;0.046813;-0.009094;-0.708740;0.163818;-0.377441;0.646465;-0.189719;-0.649140;-0.353139
28686;9.452122;2.314411;1.030836;0.091447;0.034296;-0.010630;-0.712891;0.166260;-0.387695;0.646692;-0.189039;-0.649313;-0.352769
28687;9.454125;2.355941;1.071014;0.011097;0.008833;-0.014786;-0.699707;0.162842;-0.383789;0.646739;-0.188812;-0.649314;-0.352802
28688;9.514772;2.329347;1.101087;-0.092172;-0.015034;-0.013032;-0.700195;0.171143;-0.386963;0.646542;-0.189154;-0.649126;-0.353328
28689;9.677467;2.091768;0.989001;-0.154718;-0.019770;-0.003567;-0.705811;0.176758;-0.376221;0.646314;-0.189995;-0.648682;-0.354107
28690;9.638988;1.902106;0.920928;-0.167268;-0.009861;0.000964;-0.711182;0.174072;-0.385010;0.645972;-0.191117;-0.648213;-0.354985
28691;9.590671;1.693165;0.877232;-0.112631;-0.005439;0.008995;-0.702637;0.169922;-0.380127;0.645835;-0.191820;-0.647845;-0.355527
28692;9.620460;1.805499;0.840045;-0.024270;-0.003278;0.017339;-0.708984;0.167725;-0.376709;0.645869;-0.192024;-0.647740;-0.355546
28693;9.567804;1.979326;0.807168;0.012971;-0.001770;0.027001;-0.714600;0.170654;-0.384033;0.645902;-0.192094;-0.647796;-0.355348
28694;9.514786;2.131844;0.843923;0.012716;-0.001643;0.023365;-0.706299;0.177734;-0.382080;0.645983;-0.192132;-0.647807;-0.355157
28695;9.488975;2.254315;0.859853;-0.029871;-0.005483;0.014348;-0.709473;0.169922;-0.384277;0.646006;-0.192476;-0.647657;-0.355203
28696;9.560766;2.183803;0.828712;-0.070460;-0.005305;0.009222;-0.711182;0.168213;-0.383545;0.645928;-0.192849;-0.647448;-0.355524
28697;9.581594;1.973157;0.834741;-0.073559;-0.006509;0.009260;-0.708984;0.174561;-0.386963;0.645811;-0.193216;-0.647264;-0.355873
28698;9.568189;1.883544;0.763584;-0.040474;0.001624;0.009617;-0.710449;0.172363;-0.382324;0.645873;-0.193434;-0.647056;-0.356019
28699;9.519497;1.807951;0.817841;0.009382;-0.000257;0.010168;-0.697510;0.170410;-0.375977;0.645928;-0.193409;-0.647067;-0.355914
28700;9.614438;1.961700;0.904435;0.052878;-0.003757;0.014565;-0.719971;0.171631;-0.380127;0.646057;-0.193182;-0.647217;-0.355530
28701;9.631425;2.134675;0.921847;0.047016;-0.003009;0.021967;-0.717041;0.166748;-0.375244;0.646089;-0.193079;-0.647402;-0.355191
28702;9.572757;2.146392;0.943132;0.014096;0.001446;0.028903;-0.706543;0.173584;-0.375732;0.646058;-0.193140;-0.647508;-0.355021
28703;9.528421;2.127300;0.965822;-0.002015;-0.000845;0.033777;-0.700195;0.176270;-0.379639;0.646111;-0.193392;-0.647471;-0.354854
28704;9.563604;2.253405;0.889746;-0.010828;-0.000200;0.032334;-0.715088;0.183105;-0.377686;0.646255;-0.193653;-0.647330;-0.354706
28705;9.585076;2.301051;0.871413;-0.049598;0.012758;0.029651;-0.702637;0.168945;-0.383301;0.646274;-0.194251;-0.647055;-0.354846
28706;9.491914;2.171042;0.845951;-0.079508;0.009743;0.022519;-0.710693;0.170410;-0.381104;0.646334;-0.194607;-0.646719;-0.355155
28707;9.422660;2.031172;0.794922;-0.076574;-0.003523;0.020299;-0.698486;0.169189;-0.379395;0.646230;-0.195042;-0.646517;-0.355473
28708;9.475646;2.015932;0.807618;-0.055692;-0.020352;0.017937;-0.700195;0.171875;-0.382568;0.646135;-0.195341;-0.646437;-0.355627
28709;9.542644;1.972141;0.818272;-0.029687;-0.021501;0.010554;-0.710938;0.171387;-0.386230;0.646092;-0.195467;-0.646421;-0.355665
28710;9.552528;1.968180;0.860847;-0.002539;-0.019434;0.005098;-0.712402;0.182129;-0.374512;0.646052;-0.195392;-0.646511;-0.355614
28711;9.555604;2.049153;0.904255;0.011318;-0.018281;0.000818;-0.710938;0.175293;-0.378662;0.645893;-0.195553;-0.646659;-0.355548
28712;9.664431;2.042831;0.888064;0.021844;-0.010190;-0.000404;-0.707031;0.182617;-0.378662;0.645844;-0.195448;-0.646802;-0.355434
28713;9.642014;2.047149;0.862778;0.030985;0.000154;-0.002755;-0.708984;0.174561;-0.378418;0.645911;-0.195363;-0.646852;-0.355268
28714;9.595367;2.003939;0.826545;0.036715;0.003561;-0.002753;-0.702637;0.176514;-0.375488;0.645965;-0.195112;-0.646964;-0.355103
28715;9.519618;1.983154;0.830061;0.034432;-0.008102;0.000800;-0.708740;0.174072;-0.375488;0.645977;-0.194983;-0.647103;-0.354899
28716;9.593621;2.054766;0.877278;0.028063;-0.014980;0.006133;-0.710693;0.175049;-0.379395;0.645905;-0.194919;-0.647295;-0.354715
28717;9.617848;2.144480;0.893295;-0.001777;-0.014516;0.014520;-0.709961;0.179199;-0.372803;0.645854;-0.195035;-0.647356;-0.354633
28718;9.617673;2.169706;0.869987;-0.037469;-0.010768;0.020710;-0.708740;0.174072;-0.375488;0.645714;-0.195513;-0.647293;-0.354739
28719;9.453010;2.152503;0.880299;-0.074630;-0.010736;0.019882;-0.712158;0.172607;-0.377197;0.645550;-0.196039;-0.647134;-0.355037
28720;9.488552;2.064124;0.916399;-0.087516;-0.017990;0.010605;-0.709229;0.181396;-0.376709;0.645296;-0.196552;-0.647007;-0.355447
28721;9.601481;2.048876;0.935222;-0.089367;-0.017341;0.013261;-0.703857;0.173584;-0.375488;0.645086;-0.197227;-0.646795;-0.355840
28722;9.689428;1.912613;0.876368;-0.060767;-0.011558;0.014788;-0.706543;0.177002;-0.375488;0.644980;-0.197570;-0.646673;-0.356064
28723;9.676093;1.837841;0.832724;-0.012531;0.001383;0.014283;-0.708252;0.175049;-0.370605;0.645008;-0.197675;-0.646614;-0.356061
28724;9.492246;1.886423;0.788922;0.042372;0.005782;0.012071;-0.698730;0.189209;-0.370117;0.645064;-0.197490;-0.646751;-0.355813
28725;9.537330;1.986023;0.779522;0.061192;0.000274;0.011671;-0.709717;0.181152;-0.382080;0.645199;-0.197470;-0.646832;-0.355432
28726;9.526437;2.037809;0.787283;0.058520;-0.004557;0.009382;-0.711182;0.185303;-0.374512;0.645359;-0.197199;-0.646968;-0.355044
28727;9.586518;2.079941;0.798092;0.045144;-0.008743;0.006889;-0.702393;0.180420;-0.370361;0.645361;-0.197180;-0.647118;-0.354778
28728;9.586827;2.079630;0.795185;0.034740;-0.010323;0.003642;-0.713623;0.184814;-0.370605;0.645338;-0.197130;-0.647273;-0.354566
28729;9.455885;2.126998;0.888224;0.038499;-0.015541;0.002673;-0.717529;0.179688;-0.374268;0.645212;-0.197191;-0.647484;-0.354374
28730;9.514428;2.177312;0.945565;0.023036;-0.024358;-0.005170;-0.711426;0.168945;-0.371582;0.645010;-0.197184;-0.647738;-0.354281
28731;9.649033;2.104085;0.947357;-0.002393;-0.020319;-0.004542;-0.711426;0.174561;-0.375977;0.644811;-0.197090;-0.647961;-0.354288
28732;9.598719;2.065701;0.877640;-0.030529;-0.016421;-0.003212;-0.709473;0.167236;-0.378174;0.644646;-0.197215;-0.647999;-0.354449
28733;9.608163;2.069433;0.822456;-0.044509;-0.016145;0.000380;-0.708496;0.178711;-0.370117;0.644518;-0.197248;-0.648018;-0.354630
28734;9.491006;2.093021;0.818980;-0.059775;-0.020359;-0.000874;-0.711914;0.178711;-0.367188;0.644246;-0.197690;-0.647975;-0.354956
28735;9.617115;1.992439;0.800021;-0.077690;-0.021456;-0.003671;-0.708008;0.177246;-0.381104;0.643877;-0.198248;-0.647920;-0.355415
28736;9.685365;1.727660;0.874228;-0.046478;-0.008883;-0.005051;-0.713623;0.180176;-0.371582;0.643834;-0.198369;-0.647801;-0.355642
28737;9.572383;1.725283;0.826029;0.012451;-0.007174;-0.002477;-0.705811;0.185059;-0.378418;0.643749;-0.198370;-0.647902;-0.355611
28738;9.573330;1.906592;0.834387;0.071217;-0.001889;0.011952;-0.710693;0.177490;-0.375244;0.643975;-0.198111;-0.648013;-0.355145
28739;9.601811;2.114843;0.856470;0.083671;-0.001084;0.010198;-0.714844;0.179932;-0.375000;0.644143;-0.197683;-0.648254;-0.354636
28740;9.566201;2.162945;0.860351;0.048724;0.010021;0.004425;-0.716309;0.175293;-0.378662;0.644261;-0.197453;-0.648342;-0.354389
28741;9.667527;2.058141;0.838409;0.008979;0.008551;0.005071;-0.706543;0.184814;-0.370850;0.644337;-0.197326;-0.648336;-0.354334
28742;9.527298;1.961885;0.840380;0.004519;0.009663;0.009914;-0.708740;0.183838;-0.373779;0.644401;-0.197486;-0.648243;-0.354299
28743;9.578172;1.961691;0.802079;0.019562;0.004184;0.017850;-0.712158;0.173096;-0.370117;0.644501;-0.197578;-0.648211;-0.354124
28744;9.530310;1.965072;0.822072;0.014772;0.002187;0.021298;-0.702881;0.170898;-0.373291;0.644528;-0.197556;-0.648286;-0.353950
28745;9.552117;1.965503;0.892741;0.040438;-0.002053;0.018366;-0.716309;0.178955;-0.374756;0.644669;-0.197286;-0.648422;-0.353595
28746;9.513239;2.016989;0.864258;0.059578;0.000839;0.017844;-0.706055;0.174072;-0.371582;0.644772;-0.197093;-0.648588;-0.353210
28747;9.512392;2.130199;0.854152;0.059674;-0.003219;0.016330;-0.706787;0.174561;-0.379395;0.644884;-0.196815;-0.648788;-0.352793
28748;9.597829;2.088736;0.856069;0.045026;0.003422;0.014928;-0.715088;0.182129;-0.379883;0.645088;-0.196521;-0.648865;-0.352443
28749;9.571100;2.124125;0.777376;0.020268;-0.001654;0.012477;-0.713867;0.178223;-0.373535;0.645159;-0.196530;-0.648880;-0.352279
28750;9.615119;2.084769;0.765702;-0.001504;-0.001443;0.011465;-0.711426;0.185547;-0.374512;0.645127;-0.196643;-0.648890;-0.352255
28751;9.651901;2.049577;0.789893;-0.010103;0.003739;0.010727;-0.708008;0.174072;-0.381104;0.645135;-0.196897;-0.648784;-0.352294
28752;9.504484;1.957168;0.826563;-0.009930;0.000303;0.010687;-0.707764;0.179199;-0.373535;0.645221;-0.196865;-0.648725;-0.352263
28753;9.558170;1.872070;0.853415;-0.004805;-0.007169;0.010849;-0.712402;0.182129;-0.368408;0.645192;-0.196998;-0.648731;-0.352232
28754;9.542485;1.935528;0.877481;0.020161;-0.010253;0.010300;-0.708008;0.177734;-0.374023;0.645101;-0.197117;-0.648855;-0.352104
28755;9.604800;2.027943;0.876680;0.019422;-0.007041;0.013436;-0.706055;0.177246;-0.378906;0.645129;-0.197094;-0.648934;-0.351920
28756;9.606542;2.062112;0.834132;0.030024;-0.000925;0.017318;-0.712402;0.177490;-0.376709;0.645285;-0.196954;-0.648971;-0.351642
28757;9.582035;2.185883;0.849582;0.022163;0.001052;0.013443;-0.715332;0.172607;-0.375000;0.645361;-0.196874;-0.649019;-0.351461
28758;9.660050;2.067569;0.775408;-0.007326;0.004531;0.011482;-0.710938;0.180664;-0.377441;0.645362;-0.196870;-0.649018;-0.351462
28759;9.571001;1.944453;0.760857;-0.017018;0.004444;0.008088;-0.716309;0.179688;-0.371826;0.645392;-0.197007;-0.648911;-0.351527
28760;9.582328;1.889632;0.752134;-0.014071;0.001884;0.014707;-0.708008;0.173340;-0.379395;0.645337;-0.197220;-0.648877;-0.351573
28761;9.568575;1.895355;0.822258;0.005679;0.000448;0.019925;-0.711914;0.182617;-0.384766;0.645457;-0.197145;-0.648868;-0.351410
28762;9.522530;2.037534;0.843223;0.021047;-0.006814;0.014483;-0.708984;0.180176;-0.375732;0.645579;-0.197098;-0.648880;-0.351190
28763;9.547684;2.083071;0.852590;0.007987;-0.013164;0.014924;-0.702881;0.181885;-0.375000;0.645567;-0.197182;-0.648942;-0.351053
28764;9.620067;2.042393;0.876691;0.000997;-0.003122;0.012288;-0.714600;0.167480;-0.374512;0.645621;-0.197277;-0.648903;-0.350970
28765;9.570496;2.016799;0.838473;-0.002379;0.000502;0.011680;-0.708496;0.171143;-0.377930;0.645605;-0.197169;-0.648971;-0.350934
28766;9.619367;1.964791;0.811745;0.009030;0.004040;0.013881;-0.711182;0.175781;-0.369141;0.645710;-0.197013;-0.648986;-0.350802
28767;9.591401;1.963748;0.775358;0.017964;0.004552;0.012301;-0.707275;0.182373;-0.376465;0.645712;-0.196982;-0.649052;-0.350693
28768;9.548376;1.999708;0.786010;0.013637;-0.003113;0.012699;-0.711914;0.177002;-0.370361;0.645777;-0.197013;-0.649058;-0.350546
28769;9.605222;2.045198;0.765715;0.007374;-0.008755;0.015070;-0.712646;0.180908;-0.375000;0.645709;-0.197098;-0.649150;-0.350452
28770;9.647926;2.055608;0.808441;-0.012869;-0.006886;0.014412;-0.716309;0.178711;-0.374756;0.645666;-0.197293;-0.649132;-0.350456
28771;9.604273;1.988985;0.776408;-0.024930;-0.003976;0.013106;-0.705078;0.178223;-0.372559;0.645591;-0.197507;-0.649093;-0.350544
28772;9.487935;1.918983;0.858962;-0.009733;-0.007716;0.013596;-0.710205;0.177979;-0.371094;0.645569;-0.197635;-0.649091;-0.350517
28773;9.518159;1.995568;0.859811;0.012946;-0.011937;0.013622;-0.708252;0.177979;-0.375732;0.645516;-0.197673;-0.649205;-0.350381
28774;9.592508;2.006596;0.871415;0.019412;-0.004468;0.009720;-0.711914;0.177734;-0.385986;0.645568;-0.197576;-0.649275;-0.350212
28775;9.685750;1.997583;0.798429;0.023622;0.004487;0.002711;-0.707520;0.178467;-0.373779;0.645742;-0.197288;-0.649287;-0.350030
28776;9.597306;1.955922;0.749021;0.023842;0.009004;0.003380;-0.708984;0.180176;-0.371826;0.645833;-0.197130;-0.649310;-0.349907
28777;9.592273;1.881107;0.751580;0.029550;0.007121;0.004849;-0.711182;0.181152;-0.372803;0.645897;-0.197012;-0.649362;-0.349761
28778;9.556630;1.994886;0.840221;0.039195;0.001945;0.009726;-0.712891;0.184082;-0.373047;0.645959;-0.196895;-0.649459;-0.349531
28779;9.544073;2.038790;0.867416;0.029266;-0.005224;0.009370;-0.710205;0.179199;-0.367920;0.645958;-0.196900;-0.649555;-0.349352
28780;9.575672;2.060423;0.912287;0.026123;-0.004499;0.004283;-0.714355;0.179688;-0.377686;0.645902;-0.196862;-0.649687;-0.349231
28781;9.655915;2.053102;0.861041;0.007181;0.001784;0.002551;-0.708008;0.184326;-0.374023;0.645925;-0.196815;-0.649699;-0.349194
28782;9.580467;1.965507;0.783847;-0.016277;0.008685;0.010101;-0.712158;0.183105;-0.374023;0.645965;-0.197013;-0.649560;-0.349266
28783;9.566060;1.891187;0.742413;-0.007683;0.006184;0.013035;-0.711182;0.178223;-0.374512;0.645990;-0.197173;-0.649479;-0.349280
28784;9.548720;1.989437;0.794196;-0.001516;-0.001279;0.017351;-0.714111;0.171875;-0.367920;0.646010;-0.197256;-0.649474;-0.349208
28785;9.555404;2.076031;0.820675;-0.017650;-0.006131;0.020079;-0.708740;0.181152;-0.381104;0.645906;-0.197416;-0.649521;-0.349220
28786;9.618400;1.987514;0.892827;-0.023972;-0.009948;0.011410;-0.707520;0.180664;-0.369629;0.645905;-0.197583;-0.649453;-0.349255
28787;9.615697;1.919203;0.875841;-0.030209;-0.003123;0.005639;-0.708252;0.177979;-0.382812;0.645807;-0.197827;-0.649389;-0.349416
28788;9.609079;1.812675;0.820127;0.000119;-0.001169;0.012501;-0.705078;0.180176;-0.378418;0.645921;-0.197764;-0.649352;-0.349309
28789;9.578458;1.918994;0.793698;0.043558;0.004957;0.012263;-0.713379;0.181152;-0.375732;0.646111;-0.197518;-0.649407;-0.348995
28790;9.517593;2.105512;0.763146;0.047664;0.008113;0.011179;-0.711670;0.184082;-0.373779;0.646247;-0.197299;-0.649493;-0.348709
28791;9.561321;2.153433;0.766074;0.007863;0.008020;0.005303;-0.703369;0.187500;-0.375244;0.646286;-0.197327;-0.649459;-0.348682
28792;9.640752;2.081475;0.780500;-0.038889;0.003358;-0.001702;-0.710449;0.175293;-0.378174;0.646260;-0.197604;-0.649274;-0.348918
28793;9.614720;1.795415;0.807322;-0.050965;0.003712;0.000687;-0.714111;0.178955;-0.374512;0.646214;-0.197754;-0.649129;-0.349188
28794;9.575878;1.755438;0.866968;-0.001751;0.001397;0.010030;-0.710938;0.186035;-0.381348;0.646210;-0.197790;-0.649132;-0.349170
28795;9.604117;1.868070;0.894477;0.045827;-0.001266;0.012431;-0.702393;0.177979;-0.381592;0.646361;-0.197621;-0.649208;-0.348846
28796;9.658426;2.021346;0.884519;0.052911;0.004489;0.010567;-0.710693;0.178955;-0.382812;0.646592;-0.197258;-0.649289;-0.348472
28797;9.617538;2.066194;0.876324;0.025361;0.010740;0.009590;-0.705322;0.183838;-0.380371;0.646774;-0.197043;-0.649276;-0.348280
28798;9.558176;2.042969;0.794195;-0.006798;0.006972;0.015002;-0.707031;0.177490;-0.383545;0.646903;-0.197124;-0.649150;-0.348228
28799;9.545008;2.070104;0.794900;-0.027731;0.000054;0.015298;-0.714111;0.183105;-0.369141;0.646975;-0.197228;-0.649027;-0.348266
28800;9.564762;1.997194;0.802652;-0.040894;-0.002297;0.011348;-0.706055;0.190674;-0.377197;0.646830;-0.197608;-0.648938;-0.348483
28801;9.622608;1.899329;0.815065;-0.040034;-0.004337;0.005231;-0.709961;0.179443;-0.368408;0.646787;-0.197953;-0.648781;-0.348662
28802;9.644287;1.835200;0.803468;-0.022192;0.001489;0.010902;-0.708252;0.181396;-0.374512;0.646708;-0.198155;-0.648737;-0.348776
28803;9.625996;1.875445;0.819821;0.005205;0.005961;0.011161;-0.704590;0.183105;-0.370850;0.646768;-0.198159;-0.648709;-0.348713
28804;9.571259;1.971805;0.888938;0.024321;0.006194;0.014309;-0.705322;0.193359;-0.373779;0.646854;-0.198128;-0.648725;-0.348541
28805;9.564676;2.066991;0.838697;0.011931;0.006008;0.011625;-0.707031;0.186035;-0.379150;0.646939;-0.198259;-0.648651;-0.348446
28806;9.605971;2.019441;0.847629;-0.005229;0.006434;0.008703;-0.704346;0.181396;-0.374756;0.647024;-0.198323;-0.648552;-0.348437
28807;9.567709;2.000223;0.837170;-0.013095;0.005850;0.008531;-0.705811;0.187012;-0.378662;0.647062;-0.198400;-0.648467;-0.348480
28808;9.506017;2.035349;0.857588;-0.015810;-0.001577;0.009985;-0.710693;0.186279;-0.375977;0.647090;-0.198563;-0.648374;-0.348509
28809;9.598110;2.032257;0.833659;-0.021174;-0.003980;0.004749;-0.710449;0.185791;-0.371338;0.647033;-0.198747;-0.648320;-0.348612
28810;9.697783;1.997019;0.797694;-0.026053;0.005342;0.003046;-0.710938;0.186523;-0.371826;0.646975;-0.198949;-0.648224;-0.348781
28811;9.590951;1.926024;0.780466;-0.026413;0.006841;-0.001283;-0.709229;0.179688;-0.377686;0.646915;-0.199128;-0.648123;-0.348978
28812;9.532306;1.914048;0.827026;-0.020711;0.004942;0.000189;-0.708984;0.182373;-0.369141;0.646915;-0.199147;-0.648051;-0.349101
28813;9.517411;1.950856;0.875354;-0.023519;-0.005820;-0.002020;-0.711426;0.186035;-0.378174;0.646774;-0.199305;-0.648053;-0.349267
28814;9.609074;1.905354;0.844185;-0.027870;-0.006048;0.003519;-0.712158;0.181396;-0.372803;0.646710;-0.199492;-0.647988;-0.349401
28815;9.605407;1.975399;0.896162;-0.023001;-0.003443;0.001521;-0.711670;0.187500;-0.373779;0.646614;-0.199612;-0.647973;-0.349538
28816;9.563607;2.005773;0.859442;-0.021864;-0.002898;0.001225;-0.716553;0.181885;-0.382324;0.646535;-0.199792;-0.647922;-0.349674
28817;9.573816;2.024245;0.834819;-0.025528;-0.004418;-0.001513;-0.711426;0.181396;-0.377197;0.646483;-0.199845;-0.647883;-0.349813
28818;9.641313;1.946872;0.821821;-0.027047;0.001274;-0.002597;-0.705566;0.185059;-0.371338;0.646437;-0.199909;-0.647817;-0.349984
28819;9.651795;1.893818;0.813050;-0.022136;0.001943;0.000552;-0.708740;0.194580;-0.380615;0.646391;-0.200048;-0.647742;-0.350128
28820;9.587707;1.921966;0.852688;-0.019570;0.000882;0.002834;-0.703857;0.180420;-0.374268;0.646417;-0.200236;-0.647607;-0.350223
28821;9.571221;1.927771;0.842802;-0.031025;-0.005182;0.004307;-0.706787;0.179199;-0.374512;0.646358;-0.200376;-0.647546;-0.350364
28822;9.628251;1.858286;0.832317;-0.042161;-0.003397;0.010116;-0.710938;0.180664;-0.377197;0.646298;-0.200585;-0.647447;-0.350539
28823;9.580635;1.905879;0.859929;-0.031363;-0.005396;0.016899;-0.708252;0.190430;-0.375244;0.646271;-0.200774;-0.647376;-0.350612
28824;9.575679;1.943469;0.853928;-0.022739;-0.005360;0.016149;-0.703857;0.183594;-0.370605;0.646257;-0.201038;-0.647286;-0.350651
28825;9.603967;1.967856;0.868257;-0.017279;-0.007163;0.014002;-0.708252;0.185791;-0.365234;0.646214;-0.201214;-0.647260;-0.350678
28826;9.533332;1.933285;0.856962;-0.014707;-0.008330;0.010392;-0.712402;0.178711;-0.377686;0.646096;-0.201431;-0.647276;-0.350741
28827;9.621925;2.000196;0.884162;-0.020837;-0.010067;0.011963;-0.707275;0.187012;-0.375000;0.646051;-0.201502;-0.647284;-0.350768
28828;9.594472;2.042503;0.854109;-0.041699;-0.010976;0.012169;-0.700439;0.185059;-0.368408;0.645969;-0.201807;-0.647191;-0.350916
28829;9.618351;2.051014;0.907167;-0.054919;-0.003897;0.008217;-0.704590;0.183594;-0.370117;0.645865;-0.202161;-0.647038;-0.351186
28830;9.546471;2.001964;0.869046;-0.062890;-0.000448;0.003637;-0.714111;0.185303;-0.372314;0.645752;-0.202486;-0.646865;-0.351525
28831;9.543457;1.862347;0.867497;-0.050405;-0.004389;0.004821;-0.711426;0.184570;-0.370361;0.645623;-0.202766;-0.646762;-0.351790
28832;9.622512;1.860754;0.865698;-0.024797;-0.002091;0.005615;-0.706787;0.185303;-0.370605;0.645548;-0.202906;-0.646722;-0.351920
28833;9.576232;1.946606;0.852890;-0.010459;0.000621;0.003421;-0.716797;0.188477;-0.370850;0.645529;-0.202948;-0.646696;-0.351979
28834;9.600259;1.978865;0.836331;-0.001192;0.006128;-0.001875;-0.709473;0.185547;-0.370850;0.645500;-0.202940;-0.646690;-0.352047
28835;9.550787;1.971281;0.828462;-0.014749;0.005477;-0.004292;-0.705811;0.186035;-0.373291;0.645469;-0.202953;-0.646643;-0.352182
28836;9.570834;1.894856;0.786824;-0.016545;-0.003322;-0.007553;-0.710938;0.189697;-0.377930;0.645414;-0.202963;-0.646625;-0.352310
28837;9.675135;1.914010;0.818373;-0.019484;-0.000549;-0.002372;-0.715332;0.195312;-0.366699;0.645406;-0.203015;-0.646559;-0.352417
28838;9.668554;1.889549;0.876218;-0.017007;0.007080;-0.001499;-0.715332;0.187012;-0.368896;0.645330;-0.203207;-0.646477;-0.352596
28839;9.603493;1.902999;0.887495;-0.006050;0.006217;0.002316;-0.714355;0.190430;-0.367188;0.645299;-0.203240;-0.646456;-0.352671
28840;9.526337;1.888503;0.941318;-0.006351;-0.003479;0.008968;-0.703613;0.185303;-0.371826;0.645225;-0.203394;-0.646462;-0.352707
28841;9.486192;1.976357;0.940366;0.007901;-0.008636;0.011918;-0.714355;0.187256;-0.373535;0.645240;-0.203390;-0.646513;-0.352590
28842;9.639207;2.058325;0.935724;-0.000664;-0.008090;0.008225;-0.712891;0.186523;-0.372803;0.645204;-0.203426;-0.646558;-0.352552
28843;9.617243;2.039917;0.834846;-0.021103;0.002010;0.004678;-0.714844;0.182617;-0.369629;0.645178;-0.203518;-0.646495;-0.352661
28844;9.569083;1.909341;0.785926;-0.026930;0.005349;0.002505;-0.704834;0.186768;-0.373291;0.645120;-0.203599;-0.646433;-0.352833
28845;9.552127;1.872186;0.769471;-0.008222;0.003742;0.003596;-0.696777;0.189697;-0.362793;0.645159;-0.203601;-0.646377;-0.352863
28846;9.512331;1.932269;0.791673;0.002887;-0.000567;0.007354;-0.710938;0.194824;-0.366455;0.645144;-0.203703;-0.646361;-0.352863
28847;9.585365;1.949533;0.852681;0.006791;-0.006587;0.008529;-0.701660;0.184570;-0.370605;0.645082;-0.203844;-0.646393;-0.352835
28848;9.592347;2.037609;0.879482;-0.015331;-0.011305;0.005330;-0.713135;0.186523;-0.368408;0.645026;-0.203925;-0.646405;-0.352870
28849;9.625167;1.935919;0.884315;-0.026446;-0.006907;0.007462;-0.715088;0.186523;-0.373291;0.644917;-0.204114;-0.646383;-0.352999
28850;9.546689;1.934556;0.886429;-0.007817;-0.004447;0.010068;-0.708984;0.190918;-0.370361;0.644898;-0.204162;-0.646392;-0.352990
28851;9.550597;1.999354;0.903475;0.005539;-0.005730;0.008114;-0.709717;0.188721;-0.380615;0.644885;-0.204208;-0.646420;-0.352935
28852;9.588834;2.044333;0.893053;0.004282;-0.000237;0.004790;-0.708008;0.193115;-0.372314;0.644977;-0.204107;-0.646409;-0.352847
28853;9.617102;1.977400;0.845074;-0.016071;0.001175;0.002647;-0.704346;0.193848;-0.365967;0.644969;-0.204226;-0.646329;-0.352939
28854;9.566095;1.867474;0.792231;-0.020599;-0.003012;0.003043;-0.708496;0.188721;-0.375977;0.644891;-0.204447;-0.646259;-0.353081
28855;9.573755;1.855322;0.855719;-0.001881;-0.009268;0.007044;-0.709961;0.193115;-0.367676;0.644895;-0.204454;-0.646284;-0.353025
28856;9.576760;1.905573;0.842324;0.015476;-0.013264;0.009935;-0.704834;0.191406;-0.372314;0.644839;-0.204521;-0.646379;-0.352914
28857;9.596217;2.041737;0.901947;0.011970;-0.010800;0.012318;-0.704834;0.191895;-0.374268;0.644858;-0.204547;-0.646429;-0.352772
28858;9.624694;2.045411;0.838219;-0.013246;-0.004657;0.011456;-0.711670;0.185791;-0.369141;0.644881;-0.204673;-0.646368;-0.352769
28859;9.594118;1.993544;0.813246;-0.026891;-0.001203;0.010556;-0.707031;0.183105;-0.369141;0.644830;-0.204830;-0.646306;-0.352883
28860;9.612937;1.877541;0.811691;-0.028641;-0.004638;0.011713;-0.714355;0.190918;-0.369873;0.644780;-0.204977;-0.646257;-0.352981
28861;9.581813;1.803327;0.856120;-0.014215;-0.005952;0.013895;-0.714844;0.188965;-0.366943;0.644733;-0.205145;-0.646236;-0.353006
28862;9.567241;1.865903;0.881599;0.007321;-0.008885;0.014982;-0.708496;0.193604;-0.374512;0.644685;-0.205213;-0.646309;-0.352921
28863;9.639719;1.938642;0.897842;0.026673;-0.009579;0.020320;-0.716797;0.191650;-0.365723;0.644770;-0.205187;-0.646382;-0.352647
28864;9.605004;2.013503;0.880183;0.013600;-0.005887;0.016335;-0.709229;0.196289;-0.365967;0.644738;-0.205258;-0.646451;-0.352539
28865;9.560593;2.019779;0.832165;0.001674;-0.006290;0.014974;-0.717285;0.187012;-0.369141;0.644707;-0.205434;-0.646448;-0.352497
28866;9.528476;2.002799;0.832089;-0.017536;-0.013653;0.012487;-0.709473;0.189697;-0.374512;0.644600;-0.205583;-0.646490;-0.352531
28867;9.559170;1.963460;0.840534;-0.014897;-0.014099;0.016218;-0.711426;0.188965;-0.375000;0.644577;-0.205719;-0.646492;-0.352489
28868;9.574441;2.017282;0.853549;-0.021828;-0.017946;0.016492;-0.705078;0.192871;-0.367676;0.644522;-0.205888;-0.646501;-0.352473
28869;9.679675;1.939276;0.820167;-0.029829;-0.007720;0.015677;-0.706787;0.190430;-0.371338;0.644469;-0.206168;-0.646416;-0.352564
28870;9.633521;1.908548;0.814019;-0.027437;-0.003415;0.012888;-0.706787;0.191895;-0.362061;0.644461;-0.206342;-0.646328;-0.352638
28871;9.569478;1.798548;0.782535;-0.006470;-0.001976;0.014143;-0.706299;0.196045;-0.371826;0.644422;-0.206504;-0.646302;-0.352660
28872;9.572221;1.897770;0.826428;0.016355;-0.003215;0.011960;-0.710693;0.195068;-0.374756;0.644495;-0.206487;-0.646320;-0.352505
28873;9.604919;1.960672;0.879836;0.013818;-0.004159;0.008924;-0.716797;0.194092;-0.377686;0.644558;-0.206434;-0.646351;-0.352363
28874;9.629915;1.963337;0.883433;0.016391;-0.000620;0.008292;-0.704834;0.190918;-0.365479;0.644646;-0.206318;-0.646386;-0.352207
28875;9.529949;1.982036;0.891327;0.012461;-0.001893;0.007818;-0.713379;0.184814;-0.362305;0.644656;-0.206301;-0.646421;-0.352135
28876;9.560103;1.944497;0.900818;0.010463;-0.000578;0.002458;-0.712158;0.185791;-0.368896;0.644597;-0.206230;-0.646501;-0.352137
28877;9.606318;2.001217;0.885079;0.020254;0.004560;-0.001484;-0.707764;0.194824;-0.375000;0.644633;-0.206019;-0.646571;-0.352066
28878;9.620435;1.944317;0.759746;0.017578;0.007050;-0.004456;-0.708008;0.190918;-0.370361;0.644735;-0.205837;-0.646570;-0.351987
28879;9.583008;1.893370;0.721911;0.019648;0.006204;-0.009408;-0.710449;0.193115;-0.361084;0.644779;-0.205628;-0.646610;-0.351956
28880;9.585807;1.846323;0.746162;0.030532;-0.000045;-0.010045;-0.710205;0.197754;-0.374756;0.644717;-0.205492;-0.646724;-0.351938
28881;9.596444;1.931642;0.805208;0.041880;0.000136;-0.005610;-0.709473;0.182861;-0.371338;0.644807;-0.205238;-0.646826;-0.351734
28882;9.604357;1.965340;0.875540;0.039804;0.000903;-0.006549;-0.710449;0.191162;-0.367188;0.644864;-0.204874;-0.646978;-0.351562
28883;9.620723;1.959921;0.885148;0.031736;0.005861;-0.005918;-0.708984;0.191406;-0.367920;0.644898;-0.204671;-0.647054;-0.351480
28884;9.573774;1.932990;0.879343;0.023132;0.008557;-0.002957;-0.709961;0.187744;-0.373047;0.644951;-0.204521;-0.647078;-0.351426
28885;9.573043;1.890251;0.872211;0.023127;0.003938;-0.000043;-0.705566;0.194580;-0.371826;0.645025;-0.204319;-0.647131;-0.351309
28886;9.589129;1.912152;0.860242;0.037861;0.003060;0.001305;-0.709717;0.181152;-0.374268;0.645128;-0.204129;-0.647195;-0.351112
28887;9.563937;1.937157;0.833269;0.040140;0.004139;0.000718;-0.717285;0.198486;-0.367676;0.645240;-0.203772;-0.647316;-0.350890
28888;9.597223;1.995660;0.838450;0.039350;0.002002;-0.000567;-0.705811;0.196289;-0.374023;0.645262;-0.203650;-0.647411;-0.350747
28889;9.612670;1.974491;0.818995;0.026150;0.004489;-0.001570;-0.713623;0.188477;-0.369629;0.645358;-0.203510;-0.647427;-0.350620
28890;9.579424;1.988503;0.798144;0.015942;0.000309;0.002510;-0.714111;0.194336;-0.375732;0.645361;-0.203429;-0.647481;-0.350563
28891;9.551187;2.011389;0.837861;0.012442;-0.006559;0.004853;-0.713867;0.190674;-0.376221;0.645378;-0.203399;-0.647530;-0.350457
28892;9.529949;2.030276;0.842060;0.001564;-0.009770;-0.000445;-0.713379;0.186035;-0.368896;0.645348;-0.203371;-0.647585;-0.350429
28893;9.563201;2.016989;0.861186;-0.013057;-0.010402;-0.006972;-0.709229;0.183105;-0.367676;0.645210;-0.203411;-0.647634;-0.350567
28894;9.593394;1.859453;0.830035;-0.012340;-0.004280;-0.010072;-0.706055;0.194580;-0.370605;0.645100;-0.203398;-0.647659;-0.350731
28895;9.640361;1.838648;0.780003;0.004529;-0.005258;-0.006340;-0.707275;0.184570;-0.375244;0.645066;-0.203394;-0.647682;-0.350754
28896;9.602261;1.865387;0.774361;0.019472;-0.004196;-0.000633;-0.708496;0.195557;-0.364258;0.645108;-0.203206;-0.647764;-0.350633
28897;9.560661;1.990618;0.798465;0.027707;-0.009886;0.000891;-0.702637;0.175537;-0.372314;0.645052;-0.203197;-0.647877;-0.350536
28898;9.619935;2.067557;0.835431;-0.000971;-0.015348;-0.000549;-0.708740;0.188965;-0.370605;0.644986;-0.203099;-0.647982;-0.350518
28899;9.566809;1.921877;0.821951;-0.013951;-0.011049;-0.003060;-0.714600;0.188965;-0.371094;0.644891;-0.203180;-0.647999;-0.350615
28900;9.521347;1.908762;0.843761;-0.005819;-0.010623;0.000722;-0.720215;0.189941;-0.373047;0.644811;-0.203229;-0.648044;-0.350651
28901;9.510916;1.917808;0.844634;0.001418;-0.015563;0.005447;-0.715576;0.193604;-0.367188;0.644732;-0.203266;-0.648136;-0.350604
28902;9.593079;2.061100;0.890496;-0.002896;-0.013200;0.007309;-0.708496;0.187012;-0.364990;0.644635;-0.203412;-0.648183;-0.350611
28903;9.674750;2.017397;0.812117;-0.025080;-0.009215;0.002771;-0.708008;0.194336;-0.368164;0.644508;-0.203606;-0.648158;-0.350779
28904;9.655377;1.878461;0.750559;-0.028254;-0.006312;0.004339;-0.709717;0.189209;-0.363037;0.644428;-0.203849;-0.648077;-0.350934
28905;9.579464;1.857703;0.755601;-0.017736;-0.010932;0.005268;-0.711670;0.191406;-0.363037;0.644297;-0.204049;-0.648077;-0.351058
28906;9.549545;1.943296;0.798682;0.003020;-0.017928;0.010154;-0.708740;0.193115;-0.364746;0.644176;-0.204200;-0.648164;-0.351032
28907;9.577104;2.047661;0.843922;-0.002980;-0.018558;0.002877;-0.717041;0.187012;-0.364990;0.644043;-0.204345;-0.648234;-0.351061
28908;9.584528;2.064676;0.884024;-0.018280;-0.013282;0.001720;-0.708740;0.187988;-0.358643;0.643893;-0.204482;-0.648274;-0.351185
28909;9.596382;2.047755;0.831837;-0.039655;-0.013787;0.000633;-0.717529;0.195068;-0.364746;0.643675;-0.204793;-0.648239;-0.351466
28910;9.636217;1.864372;0.768414;-0.035804;-0.008524;-0.003282;-0.713135;0.192871;-0.367676;0.643506;-0.205056;-0.648181;-0.351730
28911;9.612019;1.760624;0.799521;-0.002336;-0.008461;-0.004599;-0.713867;0.193848;-0.371338;0.643426;-0.205087;-0.648217;-0.351791
28912;9.629683;1.819245;0.745361;0.033604;-0.007986;0.001536;-0.703857;0.190430;-0.373291;0.643454;-0.204938;-0.648338;-0.351604
28913;9.642131;1.917968;0.832087;0.048271;-0.004784;0.004366;-0.712646;0.195557;-0.370605;0.643572;-0.204676;-0.648467;-0.351301
28914;9.622368;1.973882;0.795183;0.031709;-0.003358;-0.000161;-0.710205;0.191650;-0.371826;0.643613;-0.204542;-0.648552;-0.351148
28915;9.586881;1.908578;0.806895;0.025851;-0.002702;-0.004524;-0.713867;0.183594;-0.362549;0.643650;-0.204372;-0.648630;-0.351037
28916;9.538124;1.944829;0.803924;0.027137;-0.005490;0.001009;-0.715820;0.186768;-0.364014;0.643616;-0.204221;-0.648767;-0.350933
28917;9.530822;1.977822;0.814761;0.034685;-0.010101;-0.000982;-0.709229;0.182617;-0.372803;0.643570;-0.204053;-0.648943;-0.350789
28918;9.585624;2.017499;0.812118;0.028081;-0.008912;-0.004411;-0.706299;0.184326;-0.369873;0.643589;-0.203801;-0.649088;-0.350633
28919;9.639086;1.970636;0.795589;0.018918;-0.006547;-0.004223;-0.710449;0.184814;-0.374268;0.643592;-0.203636;-0.649182;-0.350551
28920;9.744127;1.889618;0.714291;0.025871;-0.000114;-0.008215;-0.711426;0.182861;-0.364258;0.643651;-0.203362;-0.649270;-0.350437
28921;9.670083;1.902028;0.777155;0.050850;-0.000859;-0.012530;-0.702637;0.189453;-0.360840;0.643657;-0.203001;-0.649460;-0.350282
28922;9.568552;1.932104;0.831279;0.078695;-0.006944;-0.018365;-0.711914;0.192383;-0.368164;0.643656;-0.202577;-0.649734;-0.350021
28923;9.579295;2.043458;0.963536;0.101668;-0.008397;-0.028824;-0.717773;0.184814;-0.364746;0.643687;-0.201945;-0.650101;-0.349650
28924;9.654961;2.113771;0.959430;0.111546;-0.008771;-0.039556;-0.707031;0.182617;-0.365234;0.643660;-0.201164;-0.650555;-0.349303
28925;9.970403;2.179607;0.978927;0.116747;0.004036;-0.052740;-0.707520;0.180908;-0.363770;0.643702;-0.200243;-0.650956;-0.349009
28926;10.078541;2.119186;0.958066;0.126015;0.017287;-0.069235;-0.716309;0.187500;-0.371338;0.643768;-0.199155;-0.651343;-0.348788
28927;10.025434;2.062669;1.011360;0.170676;0.025380;-0.089217;-0.708008;0.178467;-0.371338;0.643919;-0.197715;-0.651830;-0.348419
28928;9.857781;2.062646;1.218508;0.254812;0.024998;-0.111640;-0.715332;0.172119;-0.367188;0.644155;-0.195647;-0.652604;-0.347698
28929;9.752893;1.996331;1.377427;0.353473;0.024947;-0.131561;-0.713135;0.174072;-0.371826;0.644438;-0.192939;-0.653726;-0.346578
28930;9.570138;2.059706;1.506634;0.451616;0.021473;-0.156902;-0.716309;0.172607;-0.372803;0.644805;-0.189608;-0.655152;-0.345039
28931;9.395189;1.976818;1.484412;0.509834;0.019028;-0.180873;-0.706055;0.164551;-0.373291;0.645157;-0.185872;-0.656779;-0.343315
28932;9.266226;1.685963;1.264243;0.596569;0.022201;-0.204229;-0.708252;0.149902;-0.375488;0.645598;-0.181519;-0.658644;-0.341236
28933;9.374529;1.398938;0.940542;0.716163;0.029868;-0.224096;-0.721680;0.155518;-0.372314;0.646188;-0.176290;-0.660851;-0.338584
28934;9.467733;1.365282;0.690918;0.827332;0.057146;-0.203323;-0.709961;0.142090;-0.378662;0.647047;-0.170657;-0.663158;-0.335303
28935;9.392867;1.278287;0.570265;0.792645;0.099161;-0.144708;-0.712402;0.135254;-0.385742;0.648280;-0.165330;-0.665014;-0.331897
28936;9.314750;0.974949;0.524930;0.758002;0.129409;-0.048461;-0.714355;0.127197;-0.389160;0.649891;-0.160604;-0.666449;-0.328168
28937;9.216306;0.994596;0.469987;0.765683;0.106816;0.034110;-0.708008;0.129395;-0.395020;0.651585;-0.156317;-0.667905;-0.323891
28938;9.117393;1.052645;0.357295;0.736325;0.038697;0.097501;-0.715088;0.124756;-0.390381;0.653031;-0.152787;-0.669498;-0.319343
28939;8.955421;1.242719;0.396073;0.695818;-0.041514;0.174419;-0.714600;0.105957;-0.391846;0.654104;-0.150133;-0.671337;-0.314507
28940;9.046095;1.286809;0.507667;0.582965;-0.122202;0.304976;-0.707275;0.115479;-0.387451;0.654928;-0.148833;-0.673191;-0.309406
28941;9.512004;1.684880;0.724100;0.419715;-0.176116;0.454385;-0.708496;0.112061;-0.394531;0.655594;-0.149546;-0.674670;-0.304390
28942;9.941869;2.188685;1.024339;0.267270;-0.182812;0.559901;-0.709961;0.124023;-0.385742;0.656336;-0.151577;-0.675649;-0.299577
28943;9.786766;2.619556;1.271881;0.167804;-0.146751;0.611949;-0.704102;0.128662;-0.389648;0.657211;-0.154478;-0.676095;-0.295137
28944;9.110490;2.653052;1.418958;0.165016;-0.100520;0.631349;-0.712891;0.130371;-0.394531;0.658417;-0.157344;-0.676210;-0.290638
28945;8.456582;2.527961;1.438878;0.210178;-0.052881;0.644932;-0.703613;0.140625;-0.398193;0.659982;-0.159818;-0.676159;-0.285816
28946;8.047392;2.579255;1.317059;0.172986;-0.006192;0.651136;-0.705811;0.142090;-0.394287;0.661789;-0.162451;-0.675686;-0.281237
28947;8.137954;2.702676;0.963708;0.046471;0.042776;0.659478;-0.705566;0.150146;-0.387207;0.663667;-0.165676;-0.674652;-0.277384
28948;9.040560;2.898830;0.498136;-0.108065;0.119315;0.674376;-0.698242;0.165283;-0.385986;0.665722;-0.169716;-0.672818;-0.274458
28949;9.831238;3.147708;-0.127487;-0.411612;0.222806;0.671405;-0.701416;0.166016;-0.394775;0.667884;-0.175278;-0.669660;-0.273430
28950;10.603613;3.722470;-0.806641;-0.766436;0.305778;0.599389;-0.699707;0.186768;-0.388916;0.669828;-0.182040;-0.665335;-0.274810
28951;11.143020;4.066467;-1.274179;-1.154407;0.380181;0.561535;-0.696777;0.207031;-0.390869;0.671385;-0.190717;-0.659688;-0.278713
28952;11.690273;2.710405;-1.140033;-1.591604;0.460821;0.659774;-0.685059;0.221436;-0.395264;0.672801;-0.202211;-0.652283;-0.284565
28953;11.652266;1.871159;-0.974257;-1.898494;0.447103;0.715353;-0.679932;0.243652;-0.392334;0.673630;-0.215642;-0.643947;-0.291639
28954;11.094752;1.798488;-1.332071;-1.957552;0.300358;0.584802;-0.673828;0.262695;-0.387451;0.673039;-0.229017;-0.636331;-0.299419
28955;10.580337;1.424189;-1.006082;-1.570490;0.116961;0.458474;-0.679443;0.278809;-0.379639;0.671740;-0.239954;-0.630793;-0.305430
28956;10.007684;0.704423;-0.278173;-0.844687;-0.023340;0.383739;-0.674561;0.289062;-0.384277;0.670846;-0.246770;-0.627989;-0.307735
28957;9.352888;0.777597;0.324972;0.059860;-0.147026;0.317764;-0.671143;0.289795;-0.373047;0.671046;-0.248426;-0.628290;-0.305342
28958;8.931129;1.711139;0.466031;0.689141;-0.248443;0.277616;-0.676758;0.296875;-0.372559;0.671832;-0.246676;-0.630835;-0.299733
28959;8.810946;2.674058;0.376708;0.940201;-0.307639;0.252689;-0.673584;0.284424;-0.377197;0.672698;-0.243600;-0.634336;-0.292839
28960;8.620643;3.554016;0.354221;0.838485;-0.304066;0.244357;-0.680176;0.280518;-0.381104;0.673353;-0.240910;-0.637571;-0.286465
28961;8.453867;3.973814;0.235576;0.465816;-0.265606;0.247756;-0.675293;0.284180;-0.375488;0.673453;-0.240170;-0.639691;-0.282091
28962;8.425473;3.987233;0.151471;0.000583;-0.204867;0.246031;-0.678955;0.283203;-0.373047;0.672904;-0.241981;-0.640334;-0.280388
28963;8.657228;3.742025;0.069950;-0.417496;-0.132420;0.222923;-0.671875;0.297119;-0.376709;0.671829;-0.245795;-0.639660;-0.281186
28964;8.736653;3.242248;0.065344;-0.633266;-0.056469;0.170880;-0.675781;0.292480;-0.366699;0.670639;-0.250401;-0.638080;-0.283543
28965;8.885877;2.857861;0.029538;-0.583543;0.022993;0.090169;-0.673340;0.297852;-0.359863;0.669715;-0.254044;-0.636387;-0.286278
28966;9.061521;2.563710;0.014994;-0.358281;0.100593;-0.014866;-0.677490;0.299316;-0.363281;0.669387;-0.255737;-0.634996;-0.288616
28967;8.997859;2.633204;-0.000388;-0.089351;0.151632;-0.132086;-0.670166;0.296631;-0.363281;0.669637;-0.255127;-0.634231;-0.290252
28968;8.924753;2.928688;-0.031150;0.104268;0.176261;-0.252016;-0.662842;0.301514;-0.359375;0.670142;-0.252756;-0.634033;-0.291592
28969;8.702778;3.290564;-0.037920;0.143159;0.173319;-0.339915;-0.674561;0.297852;-0.374756;0.670447;-0.249883;-0.634053;-0.293319
28970;8.701946;3.331086;0.170853;0.080090;0.174950;-0.378313;-0.675293;0.287842;-0.366455;0.670600;-0.247007;-0.634023;-0.295462
28971;8.794080;3.719022;0.320246;-0.073232;0.176766;-0.385298;-0.673584;0.282227;-0.365234;0.670341;-0.244989;-0.633628;-0.298563
28972;9.060950;4.013062;0.599320;-0.429105;0.219257;-0.345888;-0.678955;0.276611;-0.374512;0.669647;-0.245069;-0.632014;-0.303434
28973;9.515255;4.056356;0.533300;-0.724561;0.294587;-0.396442;-0.674561;0.287842;-0.375000;0.668660;-0.246177;-0.629358;-0.310160
28974;9.934001;4.910162;0.160927;-0.855636;0.341183;-0.509648;-0.670898;0.286865;-0.368652;0.667302;-0.247427;-0.626217;-0.318341
28975;10.054058;4.702646;-0.014288;-1.051169;0.384378;-0.505081;-0.674805;0.285156;-0.369141;0.665669;-0.249716;-0.622227;-0.327659
28976;9.902453;4.059808;0.067837;-1.092644;0.382662;-0.506355;-0.680176;0.280762;-0.371338;0.663866;-0.252151;-0.618093;-0.337139
28977;10.187240;4.158341;0.315532;-0.993737;0.352261;-0.530186;-0.674561;0.288818;-0.364014;0.662003;-0.253858;-0.614443;-0.346076
28978;10.531700;4.423311;0.630946;-0.955582;0.330334;-0.558728;-0.669434;0.281250;-0.364746;0.659891;-0.255433;-0.610939;-0.355038
28979;11.144394;4.813581;0.847706;-1.028856;0.318270;-0.626130;-0.678711;0.280762;-0.367188;0.657339;-0.256978;-0.607400;-0.364600
28980;12.635834;5.268650;0.899271;-1.178156;0.341033;-0.699751;-0.686523;0.282227;-0.367432;0.654289;-0.258808;-0.603390;-0.375293
28981;14.944267;5.932425;0.907013;-1.388423;0.408980;-0.759749;-0.682617;0.284912;-0.369385;0.650824;-0.261221;-0.598384;-0.387463
28982;16.711186;6.433692;0.755145;-1.664960;0.494530;-0.788974;-0.686523;0.289307;-0.358154;0.646984;-0.264660;-0.591933;-0.401226
28983;16.822306;5.742683;0.548485;-1.835246;0.540053;-0.810616;-0.691650;0.286865;-0.360352;0.642619;-0.268821;-0.584495;-0.416103
28984;14.549446;4.276374;0.640548;-1.687492;0.504158;-0.905463;-0.683105;0.290283;-0.359619;0.637948;-0.271647;-0.577862;-0.430471
28985;11.352068;3.100825;1.267883;-1.288943;0.369278;-1.132250;-0.690430;0.284912;-0.354004;0.632587;-0.271730;-0.573708;-0.443685
28986;8.260456;2.239882;1.902270;-0.840656;0.162495;-1.496001;-0.695557;0.270264;-0.347168;0.625713;-0.268452;-0.572993;-0.456175
28987;6.170127;1.806158;2.253590;-0.422507;-0.073375;-1.953136;-0.694580;0.257812;-0.342285;0.616701;-0.261672;-0.575974;-0.468467
28988;5.780518;1.775414;2.100766;-0.114358;-0.311956;-2.373761;-0.709229;0.222168;-0.332520;0.605318;-0.252304;-0.582021;-0.480817
28989;6.671360;1.996049;1.682933;0.076293;-0.512658;-2.695152;-0.723145;0.183594;-0.331543;0.591743;-0.241035;-0.590309;-0.493232
28990;8.179025;2.500593;1.405819;0.144596;-0.620213;-2.921944;-0.733398;0.153076;-0.336426;0.576594;-0.228446;-0.599603;-0.505794
28991;9.860844;2.947153;1.143883;0.048746;-0.617602;-3.027602;-0.742188;0.110596;-0.307861;0.560578;-0.215603;-0.608282;-0.518903
28992;11.330052;2.956380;0.775874;-0.094452;-0.513936;-2.993656;-0.761719;0.075928;-0.317383;0.544346;-0.203184;-0.615393;-0.532631
28993;11.862982;2.869770;0.491198;-0.211697;-0.339416;-2.807968;-0.764648;0.044434;-0.307373;0.529460;-0.191216;-0.620535;-0.545934
28994;11.466743;2.859672;0.356216;-0.310698;-0.164606;-2.524718;-0.761475;0.013916;-0.297363;0.516245;-0.180394;-0.623668;-0.558558
28995;10.725379;2.690388;0.292734;-0.366827;-0.025172;-2.261594;-0.756348;-0.020508;-0.309082;0.504599;-0.170531;-0.625301;-0.570349
28996;9.878772;2.407627;0.450261;-0.304111;0.040601;-2.024477;-0.756836;-0.035400;-0.306885;0.494624;-0.160895;-0.626478;-0.580503
28997;9.109490;1.994970;0.672744;-0.168096;0.047671;-1.822525;-0.761230;-0.055176;-0.297852;0.485584;-0.151953;-0.627785;-0.589071
28998;8.411865;1.658194;1.017905;-0.071838;0.020692;-1.628842;-0.757812;-0.084229;-0.302734;0.477181;-0.143954;-0.629311;-0.596275
28999;7.757566;1.219064;1.194280;-0.064144;-0.038796;-1.419955;-0.752686;-0.101074;-0.308594;0.469602;-0.136984;-0.630827;-0.602301
29000;7.134562;0.608675;1.311032;-0.106403;-0.117068;-1.156777;-0.753174;-0.115234;-0.296143;0.462935;-0.131859;-0.632040;-0.607314
29001;6.824124;0.301644;1.357531;-0.164859;-0.173373;-0.821029;-0.744629;-0.121826;-0.300781;0.457419;-0.129141;-0.632808;-0.611264
29002;6.825923;0.250021;1.448594;-0.222301;-0.163520;-0.432547;-0.756836;-0.128418;-0.300049;0.453981;-0.128564;-0.632758;-0.613994
29003;6.824386;0.326775;1.413329;-0.193586;-0.103202;-0.011290;-0.752686;-0.127930;-0.297119;0.452991;-0.129834;-0.632193;-0.615040
29004;6.729379;0.578069;1.223317;-0.025003;-0.043073;0.391132;-0.759521;-0.125244;-0.291748;0.454583;-0.132243;-0.631837;-0.613716
29005;6.664030;1.084090;1.025844;0.201887;-0.014249;0.770566;-0.755127;-0.119873;-0.300049;0.458443;-0.135677;-0.632155;-0.609756
29006;6.647290;1.551385;1.051292;0.338262;-0.009991;1.139407;-0.744629;-0.100830;-0.298828;0.464501;-0.140262;-0.632653;-0.603585
29007;6.684895;1.775780;1.320924;0.323703;-0.006363;1.501734;-0.753662;-0.080566;-0.299316;0.472337;-0.146863;-0.632495;-0.596052
29008;6.622827;1.878456;1.634174;0.234602;-0.010221;1.819970;-0.758789;-0.065430;-0.292969;0.481476;-0.155615;-0.631376;-0.587647
29009;6.676780;2.120477;1.860460;0.110188;-0.032780;2.095687;-0.756104;-0.035889;-0.292480;0.491532;-0.166288;-0.629310;-0.578544
29010;7.042825;2.568997;2.031472;-0.101340;-0.049480;2.333075;-0.760986;-0.008789;-0.297119;0.502179;-0.179175;-0.625707;-0.569389
29011;7.546270;3.025811;2.093142;-0.359515;-0.044791;2.541223;-0.755371;0.026611;-0.297607;0.513306;-0.194017;-0.620285;-0.560464
29012;8.305941;3.491827;2.262892;-0.605459;-0.022624;2.704443;-0.755859;0.063477;-0.289795;0.524684;-0.210566;-0.613014;-0.551890
29013;9.582476;3.953688;2.375034;-0.786567;0.020216;2.840435;-0.754883;0.102051;-0.297119;0.536194;-0.228383;-0.604188;-0.543410
29014;11.189901;4.435102;2.497263;-0.934747;0.101269;2.973081;-0.741455;0.142090;-0.292236;0.548185;-0.246894;-0.593661;-0.534886
29015;12.681826;4.819799;2.442715;-1.091614;0.195204;3.102704;-0.731689;0.183594;-0.286621;0.560484;-0.266186;-0.581330;-0.526363
29016;13.324471;4.776138;2.355103;-1.242783;0.229520;3.195185;-0.724854;0.230957;-0.287354;0.572517;-0.286314;-0.567551;-0.517816
29017;13.542239;4.831435;2.462239;-1.346327;0.174980;3.233921;-0.717285;0.278076;-0.276855;0.583729;-0.307144;-0.553005;-0.509028
29018;13.989775;5.104635;3.054893;-1.403329;0.073568;3.184388;-0.697266;0.318604;-0.278564;0.593473;-0.328350;-0.538389;-0.500113
29019;15.573732;5.626092;4.033063;-1.453380;0.017006;3.013283;-0.679688;0.358887;-0.276123;0.601803;-0.348792;-0.523881;-0.491657
29020;17.261241;5.907632;5.075518;-1.470726;0.044114;2.743873;-0.653320;0.404541;-0.262207;0.608763;-0.367663;-0.509576;-0.484318
29021;17.103225;5.331410;5.320210;-1.333753;0.129995;2.381224;-0.640625;0.430176;-0.247559;0.614575;-0.384054;-0.496007;-0.478307
29022;14.460748;4.094580;4.519769;-0.914940;0.187345;1.974467;-0.624268;0.450684;-0.248047;0.619965;-0.396230;-0.484973;-0.472702
29023;10.544924;3.019324;3.382288;-0.320672;0.150217;1.492854;-0.611084;0.477783;-0.249023;0.625251;-0.403246;-0.478004;-0.466869
29024;7.293136;2.253140;2.820421;0.319469;0.017183;0.942055;-0.603760;0.491455;-0.256348;0.629930;-0.405362;-0.475874;-0.460884
29025;6.118406;2.229390;2.980118;0.813808;-0.128891;0.383687;-0.595459;0.481689;-0.256348;0.633580;-0.403197;-0.478229;-0.455307
29026;6.464358;2.471218;3.291917;1.082165;-0.239582;-0.107715;-0.601318;0.474365;-0.257080;0.635758;-0.398004;-0.483857;-0.450873
29027;7.201948;2.963166;3.358721;1.256037;-0.305115;-0.494682;-0.607666;0.465820;-0.264893;0.636607;-0.390603;-0.491720;-0.447629
29028;7.897515;4.157768;3.145723;1.215494;-0.299563;-0.757024;-0.618408;0.447266;-0.268311;0.636286;-0.382275;-0.500176;-0.445903
29029;8.787543;5.373164;3.060482;0.852067;-0.249042;-0.870871;-0.620117;0.431396;-0.274658;0.634480;-0.375091;-0.507390;-0.446427
29030;9.717083;6.050483;2.828725;0.345824;-0.146070;-0.884212;-0.628662;0.433838;-0.285156;0.631527;-0.370013;-0.512200;-0.449351
29031;10.434178;6.262187;2.571120;-0.136091;-0.003003;-0.874418;-0.633301;0.413574;-0.280518;0.627777;-0.367034;-0.514285;-0.454636
29032;10.565277;5.966744;2.283527;-0.539885;0.137973;-0.866924;-0.639648;0.408691;-0.262939;0.623406;-0.365463;-0.514174;-0.461981
29033;10.006321;5.168386;2.087893;-0.870681;0.239416;-0.866009;-0.643066;0.401367;-0.276855;0.618032;-0.365602;-0.512017;-0.471392
29034;9.176229;4.164653;1.961076;-1.049050;0.272228;-0.916611;-0.648438;0.402588;-0.264648;0.612410;-0.365792;-0.509301;-0.481418
29035;8.613928;3.407348;2.020884;-1.052548;0.244821;-1.036483;-0.641113;0.394531;-0.259033;0.605827;-0.365897;-0.506803;-0.492182
29036;8.178127;2.904308;2.133134;-0.974874;0.179844;-1.214414;-0.645752;0.383301;-0.254150;0.598435;-0.365085;-0.505385;-0.503165
29037;7.842782;2.568311;2.231489;-0.857183;0.099938;-1.420397;-0.676758;0.373291;-0.259277;0.590116;-0.363041;-0.505421;-0.514310
29038;7.707910;2.387800;2.261339;-0.716082;0.029963;-1.632028;-0.680664;0.356934;-0.243896;0.580976;-0.359407;-0.507076;-0.525516
29039;7.720233;2.327072;2.148621;-0.550287;-0.024045;-1.832054;-0.679199;0.329102;-0.238525;0.570822;-0.354564;-0.510039;-0.536942
29040;7.819320;2.327498;1.912825;-0.354038;-0.049882;-1.992916;-0.702148;0.327637;-0.243164;0.560382;-0.347965;-0.514432;-0.547953
29041;7.841873;2.413323;1.615990;-0.164617;-0.055710;-2.096145;-0.709229;0.298096;-0.233887;0.549772;-0.340206;-0.519722;-0.558479
29042;7.852028;2.627379;1.484756;-0.016727;-0.049199;-2.137624;-0.716309;0.266113;-0.240967;0.539106;-0.331523;-0.525610;-0.568499
29043;8.052179;2.870225;1.519013;0.062683;-0.014779;-2.127946;-0.720703;0.239502;-0.226807;0.529001;-0.321882;-0.531724;-0.577771
29044;8.447212;3.091092;1.687206;0.102919;0.055672;-2.077736;-0.732666;0.215820;-0.238281;0.519039;-0.312186;-0.537274;-0.586920
29045;8.879159;3.147958;1.813814;0.149415;0.174648;-2.001307;-0.731201;0.195312;-0.232422;0.510205;-0.301729;-0.542288;-0.595461
29046;9.107630;3.065746;1.800573;0.231902;0.301120;-1.899599;-0.742676;0.165527;-0.226318;0.502327;-0.290929;-0.546670;-0.603473
29047;9.292162;3.018038;1.674234;0.359427;0.406506;-1.783904;-0.724121;0.141602;-0.244385;0.495471;-0.279615;-0.550828;-0.610666
29048;9.661378;3.024590;1.559714;0.510774;0.475322;-1.656130;-0.745117;0.118652;-0.252197;0.490355;-0.267390;-0.555221;-0.616267
29049;10.241969;3.091432;1.653209;0.646541;0.512012;-1.526545;-0.738525;0.095703;-0.267090;0.486117;-0.255056;-0.559717;-0.620768
29050;10.857552;3.224795;1.781582;0.748997;0.475775;-1.387503;-0.733643;0.081299;-0.272949;0.482666;-0.242990;-0.564514;-0.623950
29051;11.456206;3.560044;2.125117;0.775923;0.440787;-1.241929;-0.734375;0.054443;-0.273682;0.479733;-0.231707;-0.569178;-0.626263
29052;11.570414;3.792247;2.390950;0.722278;0.403065;-1.098209;-0.740723;0.041260;-0.283691;0.477167;-0.221478;-0.573363;-0.628103
29053;11.191132;4.038663;2.694384;0.585274;0.348377;-0.981344;-0.731934;0.032227;-0.280273;0.474644;-0.212627;-0.576764;-0.629958
29054;11.535768;4.201509;2.950673;0.411345;0.267681;-0.840091;-0.735840;0.024902;-0.277100;0.472117;-0.205570;-0.579273;-0.631893
29055;12.923131;4.368581;3.046856;0.219586;0.205707;-0.639288;-0.735352;0.012695;-0.284424;0.469994;-0.200560;-0.580649;-0.633821
29056;13.717233;4.121453;3.185636;0.033815;0.228577;-0.367635;-0.735352;0.007568;-0.280273;0.469110;-0.197443;-0.580487;-0.635600
29057;12.417845;3.395111;3.385040;-0.065145;0.264097;-0.109222;-0.735352;-0.002686;-0.289062;0.469602;-0.195773;-0.579237;-0.636892
29058;10.065219;2.888385;3.539542;-0.082180;0.246809;0.041750;-0.727539;0.015381;-0.293701;0.470788;-0.194979;-0.577713;-0.637644
29059;8.572418;2.405166;3.356349;-0.058778;0.172889;0.132642;-0.732422;0.011230;-0.302734;0.472138;-0.194935;-0.576449;-0.637803
29060;7.943981;2.031776;3.176775;-0.042016;0.065590;0.152637;-0.729248;0.021729;-0.298828;0.473106;-0.195485;-0.575661;-0.637629
29061;8.165500;1.832472;3.110754;-0.056420;-0.056802;0.100746;-0.733887;0.013672;-0.297607;0.473188;-0.196499;-0.575365;-0.637524
29062;9.085673;1.446144;2.927873;-0.114797;-0.117633;0.036099;-0.733398;0.015625;-0.295898;0.472540;-0.197752;-0.575103;-0.637853
29063;10.234185;0.955698;2.478128;-0.130643;-0.112666;0.045593;-0.731445;0.020264;-0.292725;0.471942;-0.199088;-0.574721;-0.638225
29064;10.986822;0.691160;1.998946;-0.058580;-0.065426;0.180850;-0.731934;0.011719;-0.287598;0.472411;-0.200539;-0.574311;-0.637792
29065;11.101681;0.800669;1.656869;0.097520;-0.028070;0.432816;-0.726807;0.023682;-0.291504;0.474661;-0.202376;-0.574164;-0.635670
29066;10.607283;1.124238;1.668779;0.328287;0.015338;0.737614;-0.729004;0.036621;-0.290527;0.479114;-0.204528;-0.574536;-0.631290
29067;9.462551;1.387502;1.913851;0.644793;0.060445;1.027405;-0.725342;0.027588;-0.289062;0.485818;-0.206553;-0.575861;-0.624260
29068;8.392939;1.741026;2.099137;1.021135;0.121343;1.269495;-0.727539;0.065918;-0.289307;0.494655;-0.207863;-0.578402;-0.614459
29069;7.543329;2.103851;2.012193;1.298584;0.204613;1.461573;-0.725830;0.057129;-0.289551;0.505253;-0.208491;-0.581560;-0.602527
29070;6.876717;2.151463;1.716790;1.374218;0.271796;1.612072;-0.715088;0.079346;-0.303711;0.516915;-0.209125;-0.584386;-0.589541
29071;6.621819;2.112096;1.463507;1.341842;0.320800;1.744244;-0.716064;0.082275;-0.306152;0.529243;-0.210236;-0.586417;-0.576036
29072;6.696358;2.345362;1.225122;1.255093;0.368963;1.898209;-0.713623;0.099365;-0.317871;0.542207;-0.212173;-0.587347;-0.562155
29073;7.037335;2.781102;1.056291;1.126400;0.408808;2.064923;-0.702881;0.117676;-0.323975;0.555716;-0.215240;-0.586975;-0.548007
29074;7.325250;3.306160;1.045442;0.984153;0.461298;2.238544;-0.695068;0.141113;-0.334229;0.569794;-0.219487;-0.585161;-0.533617
29075;7.387136;3.694897;1.188969;0.845992;0.476594;2.407103;-0.685059;0.167725;-0.336914;0.584191;-0.225044;-0.582091;-0.518890
29076;7.756702;4.111047;1.394555;0.707898;0.470714;2.541424;-0.682861;0.197754;-0.338623;0.598600;-0.231844;-0.577922;-0.503916
29077;8.169039;4.500855;1.759132;0.529864;0.455422;2.644113;-0.661865;0.222168;-0.353271;0.612719;-0.239976;-0.572593;-0.489004
29078;8.360372;4.880068;2.251651;0.284611;0.441887;2.709867;-0.650146;0.239990;-0.358398;0.626235;-0.249597;-0.565900;-0.474646
29079;8.564168;5.275025;2.633116;-0.004172;0.410528;2.720288;-0.630371;0.272949;-0.361084;0.638712;-0.260760;-0.557913;-0.461285
29080;8.778655;5.503520;2.884769;-0.270108;0.363466;2.650311;-0.624512;0.299316;-0.361328;0.649797;-0.273064;-0.549016;-0.449200
29081;8.697503;5.709177;3.081556;-0.499875;0.296687;2.506937;-0.598877;0.331055;-0.361084;0.659201;-0.286075;-0.539683;-0.438586
29082;8.494287;5.786004;3.257613;-0.702148;0.208934;2.290330;-0.593506;0.364258;-0.361084;0.666656;-0.299420;-0.530370;-0.429680
29083;8.926762;5.738751;3.504058;-0.833788;0.115077;2.018995;-0.570801;0.381104;-0.354492;0.672148;-0.312525;-0.521585;-0.422485
29084;10.079758;5.694067;3.657620;-0.915826;0.053659;1.700873;-0.566162;0.406982;-0.351318;0.675844;-0.324825;-0.513528;-0.417149
29085;11.311763;5.352173;3.583388;-0.866168;0.027586;1.355547;-0.559082;0.425293;-0.338623;0.678211;-0.335386;-0.506606;-0.413396
29086;11.708727;4.794086;3.242179;-0.596447;0.003339;1.029463;-0.547607;0.437256;-0.344971;0.680007;-0.343085;-0.501584;-0.410240
29087;11.806927;4.404786;2.992231;-0.163943;-0.028655;0.688021;-0.541260;0.448975;-0.347168;0.681702;-0.346985;-0.499170;-0.407080
29088;13.005480;4.879131;3.414130;0.264684;-0.054128;0.337577;-0.544434;0.449951;-0.335449;0.683324;-0.347070;-0.499354;-0.404050
29089;14.496678;5.427859;4.079198;0.683102;-0.020353;-0.009728;-0.534424;0.439941;-0.344727;0.685098;-0.343213;-0.501736;-0.401380
29090;14.453617;5.645242;4.424881;1.148601;0.057939;-0.348723;-0.541748;0.430664;-0.354248;0.687358;-0.334989;-0.506174;-0.398884
29091;12.498722;5.608048;3.924366;1.469874;0.078886;-0.684365;-0.540039;0.422607;-0.371582;0.689385;-0.323394;-0.512424;-0.396972
29092;9.737548;4.867275;3.142512;1.635375;0.006920;-1.029032;-0.547363;0.403564;-0.369629;0.690256;-0.309545;-0.520450;-0.396056
29093;7.570364;4.319366;2.595915;1.712411;-0.147927;-1.391373;-0.560059;0.370117;-0.377197;0.689237;-0.294109;-0.530394;-0.396402
29094;6.780487;4.444406;2.471142;1.572898;-0.346315;-1.739694;-0.573975;0.348145;-0.397949;0.685595;-0.278478;-0.541686;-0.398730
29095;7.129779;5.002896;2.508300;1.146577;-0.540075;-2.002825;-0.583008;0.329590;-0.395264;0.678946;-0.264631;-0.553069;-0.403878
29096;8.303599;5.834698;2.599414;0.479077;-0.689879;-2.156888;-0.607178;0.303467;-0.397461;0.669344;-0.254267;-0.563175;-0.412507
29097;10.281861;6.597348;2.681871;-0.340640;-0.761840;-2.226127;-0.623291;0.277100;-0.379883;0.657165;-0.248297;-0.570796;-0.425059
29098;12.634093;7.012031;2.642425;-1.201028;-0.719989;-2.222171;-0.632568;0.266846;-0.366455;0.643121;-0.246804;-0.574877;-0.441588
29099;14.236058;6.742130;2.423998;-1.947194;-0.563524;-2.160766;-0.645752;0.248047;-0.349365;0.628156;-0.248901;-0.574922;-0.461447
29100;14.527873;6.018110;2.049854;-2.472903;-0.372175;-2.107352;-0.651855;0.252686;-0.334961;0.612791;-0.253094;-0.571439;-0.483620
29101;13.400471;4.876627;1.716511;-2.769212;-0.206854;-2.036735;-0.670410;0.241455;-0.317627;0.597380;-0.258282;-0.565305;-0.506812
29102;11.945424;3.541205;1.486868;-2.724477;-0.121573;-2.047229;-0.676270;0.236328;-0.304443;0.581927;-0.262618;-0.558494;-0.529601
29103;10.770463;2.657558;1.607979;-2.383627;-0.066396;-2.137716;-0.678467;0.222656;-0.296631;0.566631;-0.264435;-0.552685;-0.550948
29104;9.657606;1.958011;1.765862;-1.883105;-0.049145;-2.275097;-0.697021;0.218506;-0.292969;0.551510;-0.262997;-0.549026;-0.570298
29105;8.840858;1.574308;1.774807;-1.298893;-0.054375;-2.412658;-0.704102;0.183105;-0.286621;0.536673;-0.258124;-0.548154;-0.587266
29106;8.289309;1.538353;1.683615;-0.705180;-0.078287;-2.534381;-0.718262;0.169434;-0.290527;0.522136;-0.250021;-0.550283;-0.601708
29107;7.948062;1.861396;1.532534;-0.195969;-0.102729;-2.625997;-0.716309;0.136230;-0.275879;0.507832;-0.239292;-0.554993;-0.613864
29108;7.688425;2.213058;1.380465;0.164433;-0.129374;-2.665746;-0.725342;0.104736;-0.285400;0.493664;-0.226876;-0.561469;-0.624160
29109;7.526174;2.572199;1.283794;0.353319;-0.130166;-2.662209;-0.727295;0.063232;-0.270752;0.479621;-0.213590;-0.568645;-0.633235
29110;7.456330;2.870716;1.229108;0.384693;-0.109215;-2.618537;-0.740234;0.032227;-0.272949;0.465720;-0.200172;-0.575548;-0.641701
29111;7.349630;3.073929;1.137097;0.304075;-0.070627;-2.527710;-0.744629;-0.004639;-0.277832;0.452135;-0.187206;-0.581449;-0.649957
29112;7.349989;3.233306;1.122489;0.163654;-0.014287;-2.398380;-0.741943;-0.022705;-0.271484;0.439110;-0.175009;-0.585929;-0.658210
29113;7.513248;3.326002;1.200438;0.008741;0.065023;-2.238805;-0.742920;-0.056396;-0.269287;0.426955;-0.163665;-0.588820;-0.666494
29114;7.769229;3.278895;1.231196;-0.098489;0.165978;-2.057203;-0.738525;-0.073242;-0.277588;0.416019;-0.152976;-0.590320;-0.674572
29115;8.000552;3.138221;1.205184;-0.146492;0.271426;-1.847940;-0.735107;-0.110840;-0.283936;0.406605;-0.142851;-0.590759;-0.682107
29116;8.250913;2.957390;1.134063;-0.133298;0.352056;-1.628049;-0.725342;-0.121826;-0.281250;0.398764;-0.133268;-0.590610;-0.688772
29117;8.776748;2.765419;1.098927;-0.034608;0.403602;-1.376483;-0.724854;-0.133789;-0.290771;0.392667;-0.124281;-0.590483;-0.694044
29118;9.533703;2.788666;1.124132;0.117317;0.420706;-1.102490;-0.723145;-0.148438;-0.294678;0.388352;-0.116031;-0.590824;-0.697601
29119;10.205841;2.847086;1.111338;0.275463;0.406255;-0.814506;-0.724854;-0.167480;-0.300293;0.385766;-0.108761;-0.591811;-0.699368
29120;10.503802;2.844644;1.054580;0.398352;0.344460;-0.522155;-0.711670;-0.169678;-0.308350;0.384678;-0.102889;-0.593423;-0.699490
29121;10.265855;2.786286;1.015344;0.484829;0.239155;-0.227984;-0.712646;-0.177002;-0.299316;0.384851;-0.098807;-0.595607;-0.698125
29122;10.357959;2.869309;1.263219;0.517198;0.115985;0.092833;-0.709961;-0.181641;-0.300537;0.386310;-0.096926;-0.598109;-0.695439
29123;11.022467;3.188794;1.547508;0.491445;0.016762;0.459208;-0.719482;-0.171631;-0.303955;0.389371;-0.097525;-0.600472;-0.691602
29124;11.058043;3.438351;1.614743;0.399802;-0.070004;0.844386;-0.720459;-0.163574;-0.295410;0.394135;-0.100847;-0.602250;-0.686864
29125;10.580098;3.646052;1.680027;0.228461;-0.172944;1.276658;-0.720947;-0.153076;-0.292480;0.400686;-0.107479;-0.602976;-0.681410
29126;9.628819;3.762852;1.825732;0.013158;-0.277705;1.695884;-0.725830;-0.129150;-0.293701;0.408838;-0.117513;-0.602358;-0.675431
29127;8.644644;3.864732;2.274008;-0.194369;-0.367196;2.016139;-0.732422;-0.103516;-0.285156;0.418043;-0.130336;-0.600414;-0.669145
29128;7.833776;3.856765;2.755164;-0.403786;-0.438922;2.202427;-0.736572;-0.074219;-0.286621;0.427569;-0.145178;-0.597158;-0.662956
29129;7.663402;3.996916;2.991622;-0.608986;-0.495435;2.284190;-0.744385;-0.040771;-0.269531;0.436853;-0.161415;-0.592639;-0.657178
29130;7.972138;4.011171;3.154206;-0.820970;-0.551373;2.313717;-0.752686;-0.006348;-0.274170;0.445556;-0.178810;-0.586879;-0.651982
29131;8.684388;3.962087;3.145899;-1.027956;-0.573971;2.309976;-0.749268;0.021973;-0.260498;0.453618;-0.196996;-0.579812;-0.647488
29132;9.848621;3.820809;2.945308;-1.173878;-0.571158;2.323346;-0.748779;0.067627;-0.259766;0.461308;-0.215690;-0.571649;-0.643343
29133;10.956858;3.742801;2.520229;-1.231370;-0.534228;2.392157;-0.748291;0.096191;-0.245605;0.469209;-0.234626;-0.562621;-0.638945
29134;11.428563;3.590645;2.264677;-1.155101;-0.484992;2.480986;-0.754639;0.129395;-0.240967;0.477715;-0.253294;-0.553338;-0.633599
29135;11.435250;3.705453;2.424213;-0.953130;-0.439723;2.572066;-0.755127;0.167480;-0.231445;0.487083;-0.271203;-0.544455;-0.626712
29136;11.116175;3.802503;3.081659;-0.687228;-0.379037;2.636856;-0.739990;0.208252;-0.229492;0.497410;-0.287867;-0.536280;-0.618158
29137;10.587714;4.029029;3.637794;-0.355023;-0.291289;2.659273;-0.726074;0.237305;-0.213379;0.508788;-0.302654;-0.529124;-0.607918
29138;9.950854;4.196843;3.850753;-0.028243;-0.199601;2.601697;-0.714844;0.273682;-0.215332;0.520851;-0.315191;-0.523120;-0.596418
29139;9.346458;4.242043;3.733285;0.203691;-0.099474;2.460825;-0.707520;0.290283;-0.216553;0.533028;-0.325469;-0.517970;-0.584516
29140;8.852294;4.176360;3.395861;0.314190;-0.023718;2.277460;-0.696045;0.320557;-0.223145;0.544725;-0.333967;-0.513311;-0.572934
29141;8.528795;4.029715;3.056281;0.352495;0.022779;2.104596;-0.675537;0.348633;-0.226318;0.555718;-0.341216;-0.508930;-0.561907
29142;8.379670;3.934373;2.776819;0.400268;0.053588;1.941862;-0.671631;0.370361;-0.233154;0.566054;-0.347309;-0.504944;-0.551354
29143;8.320505;3.903672;2.663467;0.505968;0.073960;1.788468;-0.658447;0.381592;-0.230225;0.575930;-0.352076;-0.501660;-0.541004
29144;8.276581;3.866798;2.651804;0.694613;0.090493;1.638910;-0.648438;0.398193;-0.239746;0.585618;-0.355157;-0.499469;-0.530514
29145;8.178913;3.878774;2.696254;0.939092;0.096068;1.498133;-0.643799;0.413574;-0.242188;0.595306;-0.356356;-0.498641;-0.519595
29146;8.013068;3.977735;2.790801;1.178788;0.088927;1.361284;-0.631592;0.405273;-0.254395;0.604948;-0.355752;-0.499179;-0.508232
29147;7.717706;4.054360;2.869306;1.397198;0.065359;1.234962;-0.618652;0.420166;-0.265625;0.614465;-0.353533;-0.501022;-0.496412
29148;7.425424;4.210189;2.915033;1.577942;0.027453;1.112157;-0.618896;0.437012;-0.271484;0.623697;-0.349946;-0.504044;-0.484231
29149;7.264165;4.664304;3.054235;1.637055;-0.021715;0.996205;-0.609619;0.437988;-0.288818;0.632261;-0.345681;-0.507761;-0.472154
29150;7.069075;5.295089;3.306286;1.505820;-0.075544;0.878735;-0.600830;0.426758;-0.290039;0.639615;-0.341737;-0.511471;-0.460984
29151;7.114880;5.938742;3.577077;1.174270;-0.120824;0.768747;-0.592041;0.435059;-0.299316;0.645290;-0.339206;-0.514368;-0.451626
29152;7.679780;6.574159;3.792372;0.669996;-0.125797;0.657180;-0.587402;0.434326;-0.308838;0.649037;-0.338894;-0.515656;-0.444973
29153;8.680673;6.883917;3.888439;0.096253;-0.098473;0.544666;-0.587891;0.442871;-0.300293;0.650841;-0.341079;-0.514967;-0.441452
29154;9.790259;6.873019;3.861796;-0.393125;-0.007216;0.421882;-0.587891;0.446777;-0.300049;0.651164;-0.345057;-0.512305;-0.440982
29155;10.623067;6.445464;3.610345;-0.681400;0.088719;0.292038;-0.584717;0.452881;-0.296875;0.650570;-0.349675;-0.508419;-0.442714
29156;11.428543;5.919534;3.504920;-0.743426;0.155303;0.158809;-0.579590;0.468018;-0.295410;0.649560;-0.353803;-0.504308;-0.445611
29157;13.027810;5.802128;3.853601;-0.634477;0.218090;-0.002665;-0.581787;0.473633;-0.283447;0.648510;-0.356419;-0.500715;-0.449093
29158;14.649151;5.769597;4.550803;-0.313324;0.323532;-0.201736;-0.582764;0.464111;-0.285156;0.648077;-0.356073;-0.498315;-0.452648
29159;15.362380;5.365970;4.675820;0.222638;0.441214;-0.494690;-0.588135;0.456787;-0.291260;0.648604;-0.351149;-0.498167;-0.455891
29160;13.729173;4.409203;3.945025;0.850475;0.503223;-0.844472;-0.586182;0.451416;-0.306152;0.649845;-0.341116;-0.501055;-0.458569
29161;11.006511;3.582732;3.084574;1.397496;0.422188;-1.270327;-0.598145;0.436523;-0.326660;0.650553;-0.326590;-0.507592;-0.460946
29162;8.924004;3.441040;2.796827;1.718795;0.210728;-1.727300;-0.604980;0.415039;-0.338379;0.649262;-0.309091;-0.517587;-0.463708
29163;8.008862;4.011276;2.821226;1.685380;-0.068736;-2.145103;-0.621826;0.370117;-0.343506;0.644754;-0.290915;-0.529796;-0.467950
29164;8.256399;4.689783;2.969533;1.282108;-0.348872;-2.470656;-0.648438;0.340332;-0.351807;0.636411;-0.274401;-0.542452;-0.474796
29165;9.119253;5.320672;2.999413;0.638409;-0.574518;-2.681486;-0.660645;0.310547;-0.345947;0.624384;-0.261094;-0.553940;-0.484896
29166;10.382208;5.853511;2.888442;-0.119893;-0.710325;-2.769516;-0.686279;0.280273;-0.338135;0.609366;-0.251737;-0.562947;-0.498390
29167;11.694073;6.164226;2.740169;-0.909399;-0.722907;-2.747000;-0.702637;0.256592;-0.323730;0.592354;-0.246398;-0.568354;-0.515149
29168;12.860840;6.196880;2.511322;-1.627534;-0.595296;-2.634428;-0.722168;0.223389;-0.314697;0.574560;-0.244431;-0.569438;-0.534672
29169;13.365715;5.934406;2.200377;-2.163325;-0.358639;-2.465329;-0.727539;0.204834;-0.295654;0.557131;-0.244591;-0.566243;-0.556011
29170;12.994224;5.265707;1.667056;-2.481178;-0.103733;-2.281423;-0.737549;0.196045;-0.286133;0.540670;-0.245727;-0.559572;-0.578078
29171;12.139509;4.106915;1.125114;-2.504477;0.116553;-2.111918;-0.742188;0.175537;-0.281982;0.525584;-0.246509;-0.551012;-0.599483
29172;11.270611;2.974470;0.804257;-2.218829;0.269736;-1.985896;-0.751709;0.175049;-0.279785;0.512058;-0.245675;-0.542572;-0.618915
29173;10.513073;2.211020;0.856871;-1.721318;0.363965;-1.929966;-0.764893;0.148438;-0.281494;0.499983;-0.242353;-0.535882;-0.635699
29174;9.680202;1.840335;1.046940;-1.149237;0.398383;-1.942652;-0.756104;0.134277;-0.280518;0.488939;-0.236299;-0.531881;-0.649772
29175;8.945873;1.595119;1.194820;-0.575125;0.380919;-2.000464;-0.768311;0.105713;-0.285400;0.478470;-0.227666;-0.530996;-0.661270
29176;8.281190;1.679924;1.239387;-0.079034;0.317820;-2.076007;-0.759521;0.077881;-0.288330;0.468100;-0.216996;-0.533077;-0.670540
29177;7.850958;1.868715;1.234796;0.287786;0.218307;-2.137766;-0.768311;0.058594;-0.287598;0.457458;-0.205110;-0.537541;-0.678021
29178;7.601381;2.186743;1.154278;0.502830;0.101238;-2.175062;-0.770752;0.015137;-0.297607;0.446294;-0.192831;-0.543552;-0.684243
29179;7.475438;2.506761;1.111524;0.571209;-0.005986;-2.183725;-0.770996;-0.008789;-0.304199;0.434550;-0.180800;-0.550177;-0.689770
29180;7.352606;2.771413;1.090878;0.532624;-0.089451;-2.154709;-0.763916;-0.046875;-0.294189;0.422383;-0.169462;-0.556649;-0.694994
29181;7.291231;2.906958;1.028832;0.417133;-0.155297;-2.087680;-0.771729;-0.077881;-0.290771;0.409997;-0.159166;-0.562410;-0.700189
29182;7.301043;2.985509;0.969706;0.261515;-0.203477;-1.981347;-0.765137;-0.109375;-0.289551;0.397679;-0.150135;-0.567120;-0.705468
29183;7.419394;3.036064;1.000275;0.098893;-0.227789;-1.841339;-0.766846;-0.118652;-0.292236;0.385764;-0.142408;-0.570634;-0.710833
29184;7.514421;3.044566;1.018500;-0.044058;-0.224886;-1.680088;-0.764893;-0.152100;-0.288818;0.374568;-0.135860;-0.572975;-0.716198
29185;7.605446;2.978393;1.018338;-0.150030;-0.207173;-1.507949;-0.761230;-0.170410;-0.275879;0.364298;-0.130332;-0.574333;-0.721417
29186;7.781016;2.921403;0.963106;-0.220451;-0.195447;-1.313766;-0.761230;-0.180420;-0.281006;0.355128;-0.125858;-0.574941;-0.726283
29187;7.978785;2.812767;0.985909;-0.257985;-0.191641;-1.095730;-0.756836;-0.199707;-0.284180;0.347221;-0.122504;-0.575020;-0.730604
29188;8.421513;2.730475;1.069411;-0.252041;-0.190386;-0.856707;-0.759766;-0.200439;-0.277344;0.340759;-0.120259;-0.574846;-0.734147
29189;8.990201;2.690777;1.132206;-0.213979;-0.195938;-0.582986;-0.758789;-0.204590;-0.273438;0.335976;-0.119248;-0.574626;-0.736685
29190;9.415817;2.659381;1.255001;-0.158114;-0.211539;-0.282264;-0.751221;-0.217041;-0.275391;0.333018;-0.119612;-0.574484;-0.738079
29191;9.459029;2.647003;1.687099;-0.122412;-0.226720;0.036866;-0.759521;-0.218262;-0.271973;0.331987;-0.121498;-0.574283;-0.738391
29192;9.116840;2.749574;2.101714;-0.117557;-0.231653;0.339535;-0.764893;-0.219727;-0.278320;0.332803;-0.124850;-0.573819;-0.737826
29193;9.627400;2.883361;2.258843;-0.110257;-0.260365;0.710726;-0.755859;-0.204834;-0.268799;0.335766;-0.130130;-0.573078;-0.736144
29194;11.040206;3.102446;2.290442;-0.108382;-0.266202;1.184445;-0.773438;-0.194336;-0.260986;0.341591;-0.137696;-0.571813;-0.733065
29195;11.842167;3.394583;2.370963;-0.079227;-0.239841;1.695370;-0.779541;-0.159424;-0.265381;0.350647;-0.147433;-0.569982;-0.728307
29196;11.815846;3.844829;2.574162;-0.066383;-0.230332;2.163757;-0.789307;-0.137207;-0.270752;0.362519;-0.159261;-0.567476;-0.721933
29197;10.270912;3.906216;2.977767;-0.066155;-0.220816;2.542649;-0.789795;-0.105469;-0.250732;0.376577;-0.172763;-0.564222;-0.714141
29198;8.562118;3.774335;3.451421;-0.023345;-0.241568;2.792040;-0.793457;-0.065674;-0.260498;0.391897;-0.187343;-0.560651;-0.704975
29199;7.696389;3.905983;4.087191;0.026024;-0.300102;2.909465;-0.795654;-0.030762;-0.244873;0.407487;-0.202550;-0.557057;-0.694705
29200;7.640306;4.287359;4.817134;-0.037043;-0.349453;2.914930;-0.798584;0.010986;-0.244873;0.422528;-0.218164;-0.552926;-0.684213
29201;8.311249;4.465079;5.312513;-0.214022;-0.342462;2.839756;-0.797363;0.047363;-0.242188;0.436602;-0.233891;-0.547571;-0.674418
29202;9.488789;4.457198;5.289063;-0.458954;-0.255400;2.762620;-0.802734;0.087158;-0.235352;0.449913;-0.249540;-0.540363;-0.665819
29203;10.994716;4.181707;4.669197;-0.670516;-0.111499;2.761111;-0.795410;0.129150;-0.235596;0.463173;-0.265041;-0.531143;-0.658112
29204;12.362985;3.873312;3.663216;-0.742353;0.024382;2.823734;-0.780762;0.162109;-0.238525;0.476950;-0.280201;-0.520558;-0.650404
29205;13.171934;3.621287;3.004211;-0.616804;0.154281;2.918375;-0.779053;0.209961;-0.232422;0.491809;-0.294399;-0.509602;-0.641685
29206;13.034214;3.253962;3.026757;-0.221941;0.273893;3.003612;-0.757568;0.252197;-0.242188;0.508294;-0.306519;-0.499742;-0.630826
29207;12.324780;3.107208;3.662437;0.416303;0.408160;3.060549;-0.748047;0.292480;-0.247803;0.526938;-0.315266;-0.492199;-0.616995
29208;11.466256;3.325316;4.183387;1.153595;0.534489;3.046315;-0.732666;0.324463;-0.262207;0.547588;-0.319846;-0.487579;-0.600094
29209;10.604831;3.610768;4.323131;1.811632;0.652582;2.899764;-0.702881;0.340576;-0.275146;0.569300;-0.319983;-0.485711;-0.581027
29210;9.608561;3.717615;4.070530;2.265196;0.711629;2.655698;-0.690918;0.364258;-0.289307;0.590789;-0.316421;-0.485992;-0.560945
29211;9.141767;3.710188;3.639263;2.492270;0.731494;2.399988;-0.670654;0.372314;-0.326904;0.611243;-0.310340;-0.487484;-0.540769
29212;9.167424;3.903337;3.273122;2.587903;0.746317;2.177391;-0.653320;0.383545;-0.347656;0.630490;-0.302529;-0.489495;-0.520916
29213;9.088954;4.161702;2.855057;2.658064;0.755497;1.966415;-0.634766;0.385010;-0.371338;0.648519;-0.293208;-0.491894;-0.501490
29214;8.870859;4.521257;2.401084;2.712354;0.746701;1.752579;-0.625244;0.384521;-0.404053;0.665247;-0.282524;-0.494708;-0.482588
29215;8.464607;4.772220;2.090297;2.685189;0.719584;1.552235;-0.609375;0.386475;-0.419678;0.680509;-0.271062;-0.497676;-0.464491
29216;7.991118;4.800040;1.973102;2.583299;0.657271;1.353104;-0.589111;0.389160;-0.442871;0.694057;-0.259425;-0.500720;-0.447508
29217;7.562094;4.750621;1.956892;2.448759;0.570093;1.147119;-0.585938;0.368896;-0.459961;0.705789;-0.247884;-0.503920;-0.431833
29218;7.221946;4.690321;1.989519;2.305356;0.482931;0.949548;-0.571289;0.362305;-0.484375;0.715798;-0.236539;-0.507292;-0.417538
29219;6.751748;4.531504;1.906779;2.178588;0.389324;0.764700;-0.568604;0.345215;-0.501709;0.724230;-0.225395;-0.510932;-0.404521
29220;6.334206;4.499569;1.808532;2.076886;0.292040;0.605281;-0.555908;0.334961;-0.509277;0.731260;-0.214427;-0.514940;-0.392576
29221;6.232311;4.613399;1.868614;1.949467;0.179864;0.457626;-0.554932;0.322510;-0.524414;0.736872;-0.203913;-0.519317;-0.381771
29222;6.458266;4.670049;1.957160;1.796629;0.067642;0.320878;-0.551758;0.312256;-0.537354;0.741116;-0.194047;-0.523997;-0.372182
29223;6.846901;4.850346;2.061863;1.627141;-0.038809;0.201347;-0.550781;0.295654;-0.553955;0.744097;-0.184996;-0.528890;-0.363829
29224;7.541860;5.177718;2.195550;1.399936;-0.143931;0.095648;-0.551758;0.289551;-0.556152;0.745831;-0.177162;-0.533827;-0.356901
29225;8.482569;5.309220;2.372109;1.141867;-0.235405;-0.007399;-0.551270;0.270752;-0.558594;0.746375;-0.170741;-0.538649;-0.351610
29226;9.113982;5.144082;2.451779;0.928099;-0.319489;-0.121501;-0.560547;0.260986;-0.556152;0.745845;-0.165355;-0.543494;-0.347833
29227;9.787016;5.008614;2.628296;0.792763;-0.419097;-0.248287;-0.563721;0.253418;-0.554932;0.744249;-0.160521;-0.548711;-0.345314
29228;10.539403;5.063607;3.044787;0.693991;-0.514066;-0.408243;-0.576660;0.238037;-0.548340;0.741580;-0.155837;-0.554408;-0.344102
29229;10.608915;4.969754;3.583553;0.646743;-0.576846;-0.626293;-0.578125;0.231201;-0.551514;0.737871;-0.150602;-0.560614;-0.344350
29230;10.849986;5.040593;4.225720;0.588566;-0.612505;-0.862119;-0.585693;0.217773;-0.550781;0.733188;-0.144717;-0.567099;-0.346253
29231;11.177435;4.797038;4.328998;0.525234;-0.561378;-1.174687;-0.598145;0.200195;-0.544678;0.727681;-0.137575;-0.573394;-0.350390
29232;10.949982;4.175611;3.818252;0.525095;-0.495279;-1.542217;-0.613525;0.170654;-0.552734;0.721284;-0.128464;-0.579616;-0.356779
29233;11.460241;3.575725;2.980513;0.514954;-0.503073;-1.957094;-0.626465;0.158203;-0.533203;0.713431;-0.117374;-0.586161;-0.365588
29234;12.772129;2.763239;2.197653;0.525960;-0.548358;-2.379202;-0.631836;0.123779;-0.534912;0.703793;-0.104298;-0.593198;-0.376715
29235;13.740643;2.050966;1.780776;0.681803;-0.610453;-2.774147;-0.638428;0.083252;-0.522461;0.692394;-0.088480;-0.601125;-0.389116
29236;14.266457;1.732756;2.222834;0.971177;-0.688714;-3.079298;-0.652832;0.046631;-0.525635;0.679357;-0.069655;-0.610267;-0.401491
29237;15.041317;1.938480;2.872270;1.319325;-0.777876;-3.291258;-0.659668;-0.007324;-0.500000;0.664795;-0.048029;-0.620687;-0.412902
29238;15.676997;1.990111;3.334035;1.710688;-0.838727;-3.414722;-0.661621;-0.057861;-0.504395;0.648989;-0.023755;-0.632242;-0.422515
29239;14.349428;1.781970;3.659038;2.377366;-0.862833;-3.507570;-0.670654;-0.126221;-0.495117;0.632109;0.004557;-0.645531;-0.428611
29240;12.839377;2.548319;3.608889;3.284308;-0.902977;-3.611229;-0.667969;-0.194824;-0.464111;0.613661;0.038058;-0.661301;-0.429713
29241;12.291126;4.235446;3.036146;4.024152;-1.010714;-3.677967;-0.660645;-0.255127;-0.443604;0.592970;0.075240;-0.678982;-0.426274
29242;12.598134;5.784218;2.780198;4.245747;-1.165383;-3.707249;-0.651367;-0.332520;-0.407471;0.569859;0.112956;-0.696681;-0.420877
29243;12.191531;6.671994;2.621111;3.942165;-1.297850;-3.643327;-0.635498;-0.387695;-0.365723;0.545232;0.148159;-0.712469;-0.416123
29244;11.197330;6.966942;2.444164;3.195039;-1.427129;-3.495410;-0.616455;-0.458496;-0.332275;0.520240;0.178355;-0.725078;-0.414489
29245;10.210819;7.179403;2.474898;2.142628;-1.480775;-3.289673;-0.609863;-0.510010;-0.300049;0.496438;0.202321;-0.733527;-0.417797
29246;9.202005;7.225772;2.731403;0.933831;-1.424918;-3.005272;-0.590820;-0.545654;-0.272461;0.475502;0.219530;-0.737264;-0.426786
29247;8.534450;6.914830;3.130086;-0.272880;-1.218228;-2.722044;-0.568604;-0.553711;-0.268555;0.458711;0.230793;-0.735871;-0.441377
29248;8.251393;6.146415;3.180568;-1.272765;-0.817889;-2.439094;-0.547852;-0.575439;-0.269287;0.447070;0.237830;-0.729370;-0.459983
29249;7.409154;5.002350;2.809568;-1.980530;-0.326966;-2.112007;-0.520020;-0.586914;-0.294678;0.440812;0.241987;-0.718552;-0.480427
29250;6.406209;3.851781;2.105935;-2.396229;0.130904;-1.739342;-0.519043;-0.584717;-0.322510;0.439366;0.244070;-0.704703;-0.500781
29251;5.613527;2.632721;1.232369;-2.522114;0.527284;-1.313147;-0.498535;-0.592041;-0.347168;0.442030;0.244692;-0.689326;-0.519197
29252;5.332713;1.695795;0.562751;-2.359399;0.883813;-0.820694;-0.478760;-0.581299;-0.380615;0.448307;0.244500;-0.673974;-0.533853
29253;4.960127;1.001204;0.301206;-1.956341;1.216921;-0.284910;-0.476562;-0.567627;-0.405273;0.457829;0.244176;-0.659970;-0.543332
29254;4.698642;0.762459;0.461373;-1.336265;1.533315;0.251155;-0.464355;-0.550293;-0.416016;0.470115;0.244619;-0.648439;-0.546516
29255;4.576063;0.779415;0.562765;-0.554181;1.847348;0.782433;-0.458008;-0.545898;-0.444580;0.484790;0.246612;-0.640132;-0.542579
29256;4.495917;1.068809;0.528637;0.336699;2.154854;1.288265;-0.449951;-0.538330;-0.460205;0.501381;0.250801;-0.635406;-0.531013
29257;4.823105;1.968111;0.318660;1.217529;2.442054;1.750656;-0.442627;-0.532959;-0.468262;0.519407;0.257344;-0.633968;-0.511933
29258;5.463385;3.326456;-0.274519;1.961142;2.728117;2.108348;-0.441406;-0.533691;-0.475830;0.538404;0.266202;-0.634649;-0.486290
29259;6.091035;5.369492;-0.984256;2.326901;3.009298;2.355608;-0.439453;-0.538818;-0.466797;0.558414;0.276202;-0.635306;-0.456370
29260;6.255705;6.708480;-1.515431;2.300469;3.200841;2.550152;-0.434814;-0.534912;-0.470703;0.579424;0.285382;-0.634495;-0.424549
29261;6.409315;7.236339;-1.590150;2.114994;3.301365;2.718279;-0.434326;-0.537109;-0.477539;0.601098;0.292684;-0.631944;-0.391999
29262;6.544612;7.228731;-1.430619;1.925489;3.330500;2.876519;-0.437256;-0.535156;-0.487549;0.622945;0.297835;-0.628003;-0.358951
29263;6.770645;6.555511;-1.033429;1.879583;3.343344;2.996996;-0.424805;-0.515869;-0.494873;0.644317;0.301668;-0.623133;-0.324896
29264;7.329979;5.642772;-0.595890;2.198488;3.387876;3.170782;-0.427490;-0.523193;-0.500000;0.664467;0.305901;-0.618227;-0.287584
29265;8.547507;5.538606;-0.545183;2.831605;3.436804;3.231320;-0.424805;-0.523193;-0.505127;0.682082;0.312852;-0.613505;-0.245967
29266;9.849827;5.967286;-0.725140;3.095289;3.490069;3.378724;-0.426758;-0.519287;-0.492920;0.698080;0.319963;-0.608039;-0.201486
29267;11.791118;5.970933;-1.158152;3.043029;3.590477;3.623933;-0.435303;-0.530273;-0.486328;0.713465;0.324931;-0.601115;-0.155071
29268;14.183538;5.801037;-1.855500;3.115485;3.705022;3.910052;-0.426270;-0.516113;-0.491699;0.727749;0.328220;-0.592827;-0.105871
29269;15.031126;5.747434;-2.536242;3.462020;3.737761;3.947651;-0.419922;-0.530029;-0.486328;0.739258;0.332524;-0.583069;-0.054367
29270;14.041224;5.429953;-2.804624;3.961763;3.661935;3.698581;-0.428955;-0.532227;-0.479248;0.746717;0.340131;-0.571594;-0.002007
29271;12.735275;5.062148;-2.455693;4.249897;3.422058;3.366503;-0.426514;-0.541504;-0.469238;0.750024;0.350093;-0.559015;0.048993
29272;11.711042;4.256273;-1.537004;4.231295;2.987209;2.910580;-0.435547;-0.558105;-0.451416;0.749552;0.361312;-0.546330;0.095650
29273;11.233201;3.474860;-0.382866;4.066873;2.455325;2.365765;-0.440918;-0.574707;-0.430664;0.745917;0.373615;-0.534254;0.136355
29274;11.533722;3.443832;0.788654;3.756378;1.961188;1.863610;-0.449219;-0.583252;-0.407715;0.740328;0.386144;-0.523107;0.170782
29275;12.119406;3.652975;1.392157;3.307844;1.625857;1.472053;-0.451660;-0.603516;-0.387451;0.734316;0.397584;-0.512729;0.199539
29276;12.206031;3.826619;1.216513;2.816850;1.458852;1.172644;-0.446533;-0.607666;-0.366211;0.729019;0.407209;-0.502699;0.223620
29277;11.752820;3.456080;0.644494;2.423568;1.383103;1.010601;-0.448242;-0.621582;-0.354980;0.724526;0.414976;-0.492954;0.244650
29278;10.997157;2.769074;-0.140789;2.291167;1.363578;0.976099;-0.443604;-0.625000;-0.346924;0.720053;0.421880;-0.483186;0.264713
29279;10.153388;2.490080;-0.873341;2.419545;1.354058;1.001406;-0.455078;-0.626709;-0.323730;0.714615;0.429224;-0.472997;0.285246
29280;9.214929;2.745427;-1.388558;2.602229;1.325272;1.056223;-0.459961;-0.638184;-0.306396;0.707813;0.437237;-0.462447;0.306543
29281;8.322677;3.096310;-1.534272;2.712439;1.262702;1.114618;-0.465820;-0.645508;-0.287354;0.699732;0.445535;-0.451874;0.328154
29282;7.672094;3.226934;-1.339669;2.802116;1.193642;1.177736;-0.469727;-0.646729;-0.268066;0.690377;0.453983;-0.441367;0.349963
29283;7.375534;3.219833;-0.966981;2.920767;1.126796;1.236462;-0.481689;-0.651123;-0.238525;0.679630;0.462745;-0.430786;0.372014
29284;7.317185;3.280093;-0.347948;3.029852;1.096266;1.306952;-0.488281;-0.661133;-0.221436;0.667576;0.471595;-0.419962;0.394427
29285;7.313221;3.425216;0.192319;3.072399;1.072964;1.381840;-0.506348;-0.650879;-0.200928;0.654462;0.480092;-0.409063;0.416963
29286;7.250735;3.571044;0.535296;3.095501;1.045330;1.466862;-0.510498;-0.654541;-0.165039;0.640288;0.488097;-0.398220;0.439561
29287;7.287244;3.930618;0.703422;3.084444;0.997574;1.582084;-0.524658;-0.647705;-0.144531;0.625003;0.495408;-0.387776;0.462139
29288;7.327739;4.522955;0.929115;2.972069;0.925298;1.724799;-0.544189;-0.635986;-0.125000;0.608843;0.501507;-0.378387;0.484380
29289;7.485180;5.228332;1.384512;2.713554;0.853484;1.866919;-0.562500;-0.628418;-0.112793;0.592452;0.505715;-0.370682;0.505815
29290;7.834190;5.861414;1.869255;2.309143;0.804117;2.010558;-0.584961;-0.611084;-0.093262;0.576568;0.507313;-0.365249;0.526114
29291;8.181584;6.342573;2.324153;1.806009;0.768002;2.115358;-0.598145;-0.598145;-0.081299;0.561863;0.506020;-0.362405;0.544901
29292;8.328515;6.652925;2.599738;1.280187;0.720344;2.167262;-0.625977;-0.580078;-0.079346;0.548707;0.502069;-0.362188;0.561843
29293;8.167145;6.571776;2.842584;0.822484;0.644064;2.157793;-0.644775;-0.564697;-0.074951;0.537035;0.496186;-0.364268;0.576803
29294;7.922447;6.313654;3.064473;0.501028;0.528747;2.082017;-0.660645;-0.530762;-0.067871;0.526507;0.489479;-0.367954;0.589754
29295;7.709494;6.025716;3.239221;0.315634;0.383000;1.929161;-0.669922;-0.515137;-0.078125;0.516867;0.482998;-0.372455;0.600699
29296;7.772281;5.626146;3.430429;0.294768;0.209444;1.702431;-0.688965;-0.492920;-0.073242;0.507803;0.477879;-0.376794;0.609750
29297;8.309356;5.317144;3.690578;0.449453;0.034519;1.423355;-0.695801;-0.479248;-0.066406;0.498878;0.475103;-0.379908;0.617307
29298;9.161579;5.091234;3.922037;0.719738;-0.110587;1.120286;-0.702881;-0.467529;-0.066406;0.489917;0.475100;-0.380971;0.623796
29299;10.095157;5.122311;4.137149;1.046050;-0.226694;0.824655;-0.713379;-0.459229;-0.061523;0.480784;0.477902;-0.379590;0.629577
29300;11.211866;5.602413;4.429152;1.336567;-0.304806;0.546438;-0.720459;-0.455078;-0.042236;0.471640;0.483087;-0.375834;0.634769
29301;13.354712;7.169974;4.955385;1.395142;-0.335464;0.280754;-0.718994;-0.450439;-0.030762;0.463481;0.489450;-0.370751;0.638880
29302;15.452282;8.490367;5.410718;1.140574;-0.311293;0.008942;-0.715088;-0.445312;-0.013672;0.457839;0.495472;-0.365767;0.641175
29303;14.320618;7.865677;5.100358;0.929743;-0.333814;-0.304575;-0.711914;-0.456787;-0.007568;0.454612;0.501743;-0.360659;0.641489
29304;12.346492;6.824155;4.659119;0.748076;-0.474951;-0.687190;-0.709229;-0.470947;0.007812;0.453779;0.509181;-0.355404;0.639146
29305;10.232430;6.103240;4.897232;0.500633;-0.623368;-1.099723;-0.704834;-0.485107;0.017090;0.455693;0.517667;-0.350221;0.633806
29306;8.199347;5.579807;5.604014;0.302912;-0.743958;-1.582183;-0.690186;-0.497803;0.032959;0.460575;0.527333;-0.344399;0.625443
29307;7.127282;5.484900;5.793357;0.169661;-0.852078;-2.136072;-0.674805;-0.527344;0.045654;0.468452;0.538493;-0.337145;0.613931
29308;7.444200;5.176463;5.291503;0.111095;-0.978136;-2.639747;-0.647217;-0.545898;0.051758;0.478618;0.551228;-0.328246;0.599439
29309;8.521744;5.059453;4.518030;0.206826;-1.078471;-3.048828;-0.616943;-0.588623;0.065430;0.489819;0.565571;-0.317185;0.582753
29310;9.816278;5.577224;3.859746;0.316827;-1.132316;-3.364380;-0.583008;-0.621338;0.085205;0.501524;0.581013;-0.304035;0.564323
29311;11.369080;6.144025;3.384265;0.325323;-1.136390;-3.571123;-0.539551;-0.653809;0.098389;0.513664;0.596490;-0.289571;0.544516
29312;12.863349;6.744433;3.014196;0.246451;-1.063288;-3.677564;-0.497559;-0.682861;0.102539;0.526362;0.610936;-0.274325;0.523876
29313;13.353018;6.982896;2.677989;0.076472;-0.926770;-3.708951;-0.447266;-0.704834;0.129395;0.539863;0.623449;-0.258798;0.502874
29314;12.727859;6.727928;2.302652;-0.077463;-0.793090;-3.661809;-0.401855;-0.737305;0.124512;0.553671;0.634028;-0.243264;0.481954
29315;11.577927;6.156839;2.066848;-0.123472;-0.692583;-3.552006;-0.359131;-0.757812;0.123779;0.567021;0.643114;-0.227825;0.461505
29316;10.365667;5.682642;1.997192;-0.072690;-0.624964;-3.450437;-0.313965;-0.784424;0.131592;0.579341;0.651397;-0.212226;0.441595
29317;9.104606;5.296798;1.993826;-0.019321;-0.595946;-3.347963;-0.260254;-0.798340;0.126465;0.590560;0.659113;-0.196656;0.422061
29318;8.028206;4.942057;2.028014;-0.035147;-0.581301;-3.240717;-0.218506;-0.810791;0.131348;0.601085;0.665985;-0.181512;0.402758
29319;7.129555;4.480568;1.865610;-0.087867;-0.558147;-3.107759;-0.178711;-0.811279;0.135254;0.611041;0.671826;-0.167037;0.383898
29320;6.389236;3.953931;1.580513;-0.106701;-0.534838;-2.948730;-0.128174;-0.825439;0.129395;0.620210;0.676824;-0.153286;0.365721
29321;5.788275;3.586543;1.285022;-0.079334;-0.519491;-2.766330;-0.093994;-0.830078;0.134277;0.628367;0.681267;-0.140311;0.348343
29322;5.270197;3.352150;1.030759;-0.053171;-0.524817;-2.552826;-0.062256;-0.830566;0.131348;0.635406;0.685260;-0.128433;0.331939
29323;4.938540;3.265592;0.930227;-0.057958;-0.526381;-2.303398;-0.018799;-0.822754;0.137939;0.641517;0.688648;-0.117973;0.316705
29324;4.701360;3.360417;1.039981;-0.114867;-0.506839;-2.030039;0.008057;-0.827881;0.126953;0.647018;0.691198;-0.109032;0.302861
29325;4.657516;3.452002;1.160811;-0.228037;-0.452776;-1.731905;0.028809;-0.828613;0.123047;0.652337;0.692503;-0.101834;0.290734
29326;4.721973;3.556044;1.254708;-0.370622;-0.364613;-1.419605;0.044678;-0.827881;0.128418;0.657667;0.692412;-0.096298;0.280653
29327;4.974340;3.565660;1.334697;-0.507493;-0.238205;-1.094498;0.071289;-0.836426;0.111816;0.662999;0.690946;-0.092224;0.272985
29328;5.305331;3.598396;1.299142;-0.617839;-0.093523;-0.748872;0.079834;-0.825439;0.099854;0.668289;0.688191;-0.089601;0.267870
29329;5.769639;3.712574;1.102848;-0.706329;0.047440;-0.399637;0.093506;-0.822754;0.100830;0.673373;0.684321;-0.088403;0.265440
29330;6.397572;3.795820;0.978027;-0.740443;0.173860;-0.020265;0.083008;-0.824463;0.080322;0.677837;0.679709;-0.088669;0.265841
29331;7.279259;4.082746;0.900432;-0.704907;0.271554;0.386111;0.080322;-0.825684;0.084473;0.681269;0.674704;-0.090694;0.269115
29332;8.491526;4.444107;0.962500;-0.648657;0.323289;0.819904;0.069824;-0.832764;0.068115;0.683359;0.669569;-0.094677;0.275200
29333;9.464200;4.653180;1.061342;-0.594368;0.333848;1.262575;0.047852;-0.833252;0.059326;0.684089;0.664273;-0.100976;0.283846
29334;10.171121;4.542558;1.078796;-0.509407;0.297999;1.690787;0.028076;-0.835693;0.058105;0.683171;0.659065;-0.109645;0.294768
29335;11.464157;4.326253;0.909054;-0.352183;0.199263;2.167148;0.004395;-0.837891;0.055420;0.679917;0.654400;-0.121052;0.307929
29336;12.952768;4.223946;0.738609;-0.165173;0.048800;2.702633;-0.036621;-0.823486;0.047607;0.673825;0.650377;-0.135695;0.323352
29337;13.569851;4.551700;0.875569;-0.052153;-0.152892;3.161765;-0.084229;-0.828613;0.046875;0.665254;0.646613;-0.153612;0.340195
29338;12.976489;5.178339;1.838265;-0.126063;-0.351329;3.456901;-0.129150;-0.822998;0.050537;0.655468;0.642136;-0.174323;0.357259
29339;11.727543;5.565333;3.015560;-0.354500;-0.471093;3.526908;-0.171387;-0.820068;0.044678;0.645939;0.636135;-0.196579;0.373433
29340;10.943620;5.629316;4.129506;-0.625154;-0.499131;3.423157;-0.207764;-0.816650;0.040771;0.637564;0.628385;-0.219109;0.388118
29341;10.941766;5.717212;4.663876;-1.028720;-0.462081;3.145991;-0.253174;-0.785645;0.020996;0.631736;0.618378;-0.241111;0.400480
29342;11.180385;5.505184;4.381312;-1.627929;-0.332758;2.811745;-0.302246;-0.781982;0.010010;0.629885;0.604978;-0.262548;0.410262
29343;10.877416;4.636873;3.241092;-2.205578;-0.258906;2.480577;-0.327881;-0.761719;-0.017334;0.631743;0.588575;-0.283697;0.417129
29344;10.745951;3.736351;1.792246;-2.552792;-0.298560;2.194943;-0.349609;-0.753174;-0.049316;0.635707;0.570704;-0.304644;0.421149
29345;10.823850;2.571960;1.251241;-2.468948;-0.358808;1.975181;-0.386475;-0.729980;-0.080566;0.639412;0.553624;-0.324350;0.423616
29346;11.003157;1.394000;1.774937;-1.853997;-0.405439;1.846675;-0.398926;-0.717041;-0.092529;0.640217;0.539998;-0.341370;0.426605
29347;10.959088;0.591258;3.049265;-0.796444;-0.384293;1.803912;-0.424316;-0.708984;-0.104004;0.636219;0.531871;-0.354186;0.432308
29348;10.493593;0.514809;4.225654;0.462346;-0.341386;1.776648;-0.442383;-0.689453;-0.092773;0.626701;0.530202;-0.362035;0.441658
29349;9.918036;1.461162;4.657191;1.604172;-0.264339;1.731017;-0.465820;-0.678955;-0.075195;0.612333;0.534186;-0.364958;0.454422
29350;9.232348;2.521074;4.602214;2.409768;-0.140059;1.695099;-0.481445;-0.675537;-0.047363;0.594587;0.541653;-0.363848;0.469780
29351;8.504574;2.912791;4.120590;3.073363;-0.029975;1.633456;-0.495117;-0.660400;-0.012695;0.573991;0.551779;-0.359039;0.486996
29352;8.205137;3.276878;3.559470;3.641639;0.145806;1.624133;-0.517822;-0.651611;0.025391;0.550786;0.563404;-0.350677;0.506198
29353;8.097721;4.252139;3.213654;3.799621;0.308057;1.596893;-0.533203;-0.635498;0.065918;0.526795;0.574504;-0.340362;0.525914
29354;7.564501;5.382767;2.420477;3.266070;0.434327;1.677794;-0.544922;-0.618896;0.091797;0.504794;0.581874;-0.331838;0.544508
29355;7.488014;5.649491;2.179827;2.549329;0.546986;1.665819;-0.572266;-0.601074;0.113770;0.486232;0.585283;-0.325755;0.561165
29356;7.376765;5.526760;1.953403;1.961223;0.623860;1.684818;-0.588135;-0.574707;0.132812;0.470365;0.585563;-0.322007;0.576354
29357;7.174606;5.476092;1.886356;1.421723;0.666719;1.673123;-0.597900;-0.559814;0.138672;0.457090;0.583315;-0.320473;0.590009
29358;7.026511;5.252649;1.959640;0.907591;0.656714;1.652095;-0.619629;-0.536133;0.135254;0.446249;0.579031;-0.321293;0.601961
29359;7.014523;4.875925;2.208682;0.531953;0.609272;1.629353;-0.630615;-0.516846;0.127441;0.437090;0.573500;-0.323981;0.612443
29360;7.174068;4.660542;2.516046;0.337516;0.546169;1.590452;-0.648682;-0.498047;0.129883;0.428795;0.567570;-0.327629;0.621819
29361;7.379191;4.672019;2.964675;0.287070;0.471404;1.523034;-0.665527;-0.485596;0.133301;0.420783;0.561935;-0.331413;0.630346
29362;7.283836;4.807998;3.385055;0.293526;0.395944;1.426997;-0.681396;-0.465820;0.126709;0.412960;0.556900;-0.334911;0.638092
29363;7.167858;5.103847;3.763785;0.256546;0.324479;1.294946;-0.683838;-0.450439;0.126953;0.405754;0.552400;-0.338191;0.644860
29364;7.540866;5.529746;4.020280;0.090109;0.250850;1.120478;-0.689209;-0.443359;0.126709;0.399996;0.548181;-0.341758;0.650155
29365;8.523147;5.914683;4.195097;-0.183103;0.197001;0.917848;-0.693848;-0.426025;0.127686;0.396400;0.543886;-0.346022;0.653700
29366;9.835569;6.127331;4.257408;-0.490013;0.171103;0.696927;-0.701172;-0.431396;0.113037;0.395290;0.539326;-0.351015;0.655486
29367;10.895062;5.917060;4.172479;-0.732433;0.176083;0.457638;-0.698486;-0.411377;0.105957;0.396585;0.534611;-0.356216;0.655760
29368;11.909430;5.393024;3.916785;-0.822699;0.146349;0.205183;-0.700195;-0.421631;0.110352;0.399539;0.530487;-0.360859;0.654777
29369;13.055954;4.978869;3.885978;-0.738276;0.091983;-0.035660;-0.701416;-0.418701;0.095215;0.403255;0.527651;-0.364131;0.652977
29370;14.647078;4.957020;4.369135;-0.567680;0.059794;-0.302844;-0.695557;-0.420166;0.085449;0.407569;0.526351;-0.365395;0.650637
29371;15.615570;5.068106;5.108125;-0.277594;0.076878;-0.598407;-0.691895;-0.426514;0.089844;0.412257;0.526830;-0.363713;0.648234
29372;15.086271;4.907106;5.379698;0.055176;0.114170;-0.949583;-0.680664;-0.438477;0.092773;0.417472;0.529291;-0.358537;0.645770
29373;12.145231;4.009045;4.745496;0.414071;0.123737;-1.370620;-0.676270;-0.458496;0.094971;0.423361;0.534149;-0.349492;0.642889
29374;8.956389;3.128748;3.621224;0.780133;0.005098;-1.841034;-0.661621;-0.476074;0.100098;0.429712;0.542181;-0.336729;0.638750
29375;7.704844;3.283422;3.090206;0.905364;-0.187650;-2.304666;-0.635254;-0.499023;0.108398;0.437278;0.552786;-0.321768;0.632202
29376;8.481960;3.903250;3.226596;0.690461;-0.367461;-2.696935;-0.619385;-0.524170;0.122559;0.447215;0.564325;-0.306625;0.622509
29377;9.495014;4.483902;3.413980;0.303808;-0.474661;-3.008661;-0.587158;-0.547363;0.133545;0.460054;0.575422;-0.292231;0.609787
29378;11.047378;4.990112;3.470092;-0.144973;-0.508766;-3.192034;-0.547607;-0.583008;0.138184;0.475589;0.585006;-0.279164;0.594686
29379;13.078161;5.166616;3.139622;-0.568366;-0.460196;-3.224531;-0.529785;-0.608643;0.133789;0.493121;0.592294;-0.267633;0.578266
29380;14.529270;5.117923;2.782566;-0.840568;-0.304581;-3.166835;-0.493164;-0.624268;0.120605;0.511703;0.597119;-0.256861;0.561810
29381;14.495169;4.765389;2.520363;-0.954121;-0.121096;-3.062598;-0.455566;-0.663330;0.115479;0.530390;0.599922;-0.246173;0.546058
29382;13.180386;4.069260;2.220846;-0.921974;0.018938;-2.955884;-0.423340;-0.685791;0.103516;0.548359;0.601579;-0.235090;0.531166
29383;11.470948;3.245556;1.928703;-0.747329;0.078935;-2.870723;-0.389648;-0.701904;0.093262;0.564849;0.603200;-0.223247;0.516969
29384;10.049684;2.658773;1.791580;-0.478258;0.062897;-2.850187;-0.355713;-0.722900;0.097168;0.579538;0.605741;-0.210300;0.502979
29385;8.820386;2.403400;1.689271;-0.234064;-0.000607;-2.850565;-0.327148;-0.736572;0.091309;0.592556;0.609365;-0.196522;0.488805
29386;7.897394;2.305484;1.594541;-0.092048;-0.088087;-2.838260;-0.293457;-0.747314;0.083008;0.604333;0.613666;-0.182561;0.474201
29387;7.280566;2.274056;1.439793;-0.036912;-0.183025;-2.802700;-0.262695;-0.762939;0.097168;0.615216;0.618211;-0.168951;0.459108
29388;6.957742;2.456866;1.276198;-0.036530;-0.264593;-2.736853;-0.225098;-0.775879;0.092041;0.625405;0.622633;-0.156014;0.443685
29389;6.745787;2.729056;0.978183;-0.131185;-0.322855;-2.628624;-0.186035;-0.780029;0.086182;0.635301;0.626307;-0.144225;0.428172
29390;6.501265;2.995891;0.771336;-0.325108;-0.343967;-2.479424;-0.150879;-0.782715;0.092529;0.645362;0.628549;-0.133962;0.412902
29391;6.282416;3.054559;0.841680;-0.599379;-0.326525;-2.291071;-0.130615;-0.789307;0.087646;0.655963;0.628773;-0.125490;0.398258
29392;6.251503;2.849018;0.953031;-0.880056;-0.287516;-2.075142;-0.106445;-0.798096;0.063477;0.667116;0.626860;-0.118834;0.384553
29393;6.467098;2.722730;1.173496;-1.076878;-0.205401;-1.842419;-0.069580;-0.794189;0.057373;0.678410;0.623139;-0.113541;0.372245
29394;6.759178;2.785645;1.265621;-1.213687;-0.092909;-1.576674;-0.059082;-0.797852;0.037109;0.689495;0.617852;-0.109394;0.361786
29395;7.075795;2.701526;1.250023;-1.273876;0.014211;-1.295910;-0.036133;-0.799316;0.018555;0.699966;0.611477;-0.106246;0.353349
29396;7.410457;2.494399;1.109381;-1.219692;0.097492;-0.998393;-0.025879;-0.805908;0.001709;0.709216;0.604782;-0.103960;0.347050
29397;7.913366;2.352072;1.064186;-1.043485;0.135480;-0.674962;-0.019775;-0.797363;-0.011963;0.716573;0.598649;-0.102569;0.342960
29398;8.800055;2.384362;1.122455;-0.822043;0.137503;-0.318337;-0.021729;-0.796143;-0.028320;0.721745;0.593477;-0.102316;0.341174
29399;9.881206;2.460640;1.266942;-0.586536;0.097446;0.043103;-0.014648;-0.801025;-0.025146;0.724659;0.589503;-0.103433;0.341551
29400;10.721892;2.519865;1.512205;-0.314223;0.016642;0.387993;-0.018555;-0.801270;-0.029541;0.725163;0.587096;-0.105965;0.343844
29401;11.011463;2.595193;1.903393;-0.026882;-0.077913;0.710876;-0.032959;-0.797607;-0.041992;0.723229;0.586398;-0.109836;0.347870
29402;10.879976;2.922501;2.405358;0.202814;-0.151868;0.979398;-0.038818;-0.791260;-0.036133;0.719284;0.587024;-0.114806;0.353346
29403;10.968726;3.199730;2.627154;0.344119;-0.221551;1.246570;-0.059326;-0.799316;-0.018555;0.713721;0.588394;-0.121080;0.360187
29404;12.487583;3.359586;2.585482;0.432203;-0.281835;1.583689;-0.084961;-0.791748;-0.010742;0.706536;0.590041;-0.129089;0.368774
29405;13.399366;3.574424;2.276824;0.450973;-0.315568;1.959327;-0.107910;-0.791504;-0.004150;0.697893;0.591361;-0.139064;0.379340
29406;12.792191;3.508845;2.165911;0.422175;-0.388931;2.300838;-0.141846;-0.791504;-0.010254;0.687984;0.592155;-0.151200;0.391370
29407;10.562189;3.395834;2.283894;0.461630;-0.493415;2.545658;-0.170166;-0.784180;0.000000;0.676643;0.592953;-0.164957;0.404166
29408;8.860250;3.596134;2.966185;0.516411;-0.613654;2.706197;-0.214600;-0.769043;0.011719;0.663967;0.593944;-0.179916;0.417143
29409;8.450696;4.182278;3.863459;0.443629;-0.713840;2.782206;-0.248535;-0.762451;0.014404;0.650851;0.594433;-0.195954;0.429702
29410;8.450356;4.927600;4.701852;0.130173;-0.784898;2.726670;-0.275391;-0.750977;0.026367;0.638992;0.593231;-0.213112;0.440850
29411;8.549060;5.493947;5.212680;-0.425647;-0.775654;2.580317;-0.302734;-0.736328;0.022217;0.630082;0.588983;-0.231416;0.450048
29412;9.073647;5.512754;5.229718;-1.102635;-0.693408;2.384947;-0.334229;-0.725098;0.007080;0.625055;0.580948;-0.250748;0.457090
29413;9.954270;4.955435;4.481597;-1.665057;-0.608928;2.199477;-0.358398;-0.712646;0.000000;0.623293;0.569743;-0.270749;0.462162
29414;10.446141;4.120783;3.487285;-1.978489;-0.559574;2.044664;-0.387207;-0.701172;-0.021729;0.623360;0.556752;-0.290810;0.465702
29415;10.574015;3.104608;2.924444;-1.980779;-0.537651;1.917458;-0.405518;-0.689941;-0.035156;0.623624;0.543661;-0.310018;0.468417
29416;10.534855;2.158710;2.932233;-1.616958;-0.504591;1.813822;-0.427490;-0.671631;-0.057373;0.622416;0.532339;-0.327017;0.471458
29417;10.037845;1.528579;3.221018;-0.894932;-0.458981;1.721192;-0.442139;-0.663330;-0.056396;0.618269;0.524649;-0.340426;0.476022
29418;9.602976;1.540049;3.509618;0.021012;-0.407998;1.631586;-0.468994;-0.641113;-0.059814;0.610462;0.521612;-0.349464;0.482837
29419;9.327729;1.950404;3.576915;0.856131;-0.336545;1.530424;-0.482666;-0.634766;-0.037109;0.599511;0.522720;-0.354266;0.491779
29420;8.979205;2.246726;3.534869;1.547614;-0.254045;1.451772;-0.494629;-0.627197;-0.022949;0.585947;0.527040;-0.355374;0.502597
29421;8.660110;2.751427;3.315039;2.079156;-0.169766;1.414954;-0.511719;-0.610596;-0.004883;0.570232;0.533511;-0.353542;0.514985
29422;8.407653;3.419286;3.015592;2.393256;-0.077860;1.406286;-0.519775;-0.591797;0.022949;0.553151;0.540846;-0.349704;0.528410
29423;8.061949;3.937635;2.696741;2.510019;0.006381;1.411502;-0.545898;-0.588379;0.048340;0.535458;0.548036;-0.344779;0.542282
29424;7.751398;4.306356;2.441382;2.468272;0.078486;1.425029;-0.562256;-0.572266;0.069092;0.517797;0.554364;-0.339574;0.556108
29425;7.549782;4.608211;2.278532;2.276469;0.122380;1.442594;-0.566406;-0.557861;0.086914;0.500791;0.559317;-0.334957;0.569366
29426;7.424768;4.897293;2.327189;1.945638;0.148939;1.458903;-0.579102;-0.535645;0.106445;0.485096;0.562466;-0.331708;0.581621
29427;7.470021;5.051603;2.573216;1.569058;0.157528;1.468988;-0.602051;-0.520020;0.117920;0.470959;0.563822;-0.330162;0.592702
29428;7.596467;5.125341;2.786509;1.221091;0.162488;1.470836;-0.606934;-0.508057;0.129395;0.458326;0.563623;-0.330220;0.602679
29429;7.546420;5.174904;2.918318;0.933544;0.145484;1.456211;-0.615479;-0.482910;0.129883;0.446964;0.562328;-0.331628;0.611582
29430;7.348926;5.389828;3.133994;0.668011;0.102828;1.409718;-0.631592;-0.474609;0.142334;0.436881;0.560287;-0.334261;0.619260
29431;7.325862;5.678414;3.465883;0.385669;0.050215;1.311824;-0.648193;-0.458984;0.142090;0.428405;0.557687;-0.338021;0.625457
29432;7.938634;6.160255;3.892984;0.039794;-0.002593;1.154053;-0.653320;-0.439941;0.138184;0.422165;0.554512;-0.342996;0.629799
29433;9.045904;6.595389;4.327538;-0.390421;-0.038531;0.954054;-0.662109;-0.433594;0.136475;0.418825;0.550543;-0.349393;0.631990
29434;9.865511;6.562500;4.581638;-0.782834;-0.043916;0.705066;-0.654541;-0.426025;0.125977;0.418552;0.545924;-0.356697;0.632099
29435;10.562277;6.262848;4.638433;-1.055240;-0.035941;0.415059;-0.658203;-0.424561;0.118896;0.421040;0.541135;-0.364051;0.630369
29436;11.327053;5.935616;4.604686;-1.204721;-0.031537;0.105155;-0.660889;-0.426270;0.109375;0.425803;0.536692;-0.370734;0.627064
29437;12.582347;5.543455;4.830183;-1.218305;-0.015693;-0.205992;-0.662109;-0.431396;0.100098;0.432259;0.533026;-0.375998;0.622624
29438;14.844452;5.546222;5.317616;-1.164833;0.076793;-0.542025;-0.671143;-0.435303;0.094971;0.440468;0.530066;-0.379112;0.617488
29439;16.081966;4.861658;5.380766;-0.998536;0.243561;-0.880287;-0.653809;-0.436279;0.079346;0.450148;0.527863;-0.379214;0.612310
29440;14.633928;3.399787;4.558213;-0.590016;0.392531;-1.273643;-0.645996;-0.462646;0.078857;0.460455;0.527600;-0.374884;0.607521
29441;11.673638;2.530429;3.469098;0.000396;0.440423;-1.737685;-0.631104;-0.479248;0.073730;0.470581;0.530716;-0.365263;0.602891
29442;9.317396;2.351071;2.883193;0.544820;0.338698;-2.212158;-0.613525;-0.497070;0.075684;0.480241;0.537754;-0.351099;0.597427
29443;8.962050;2.925295;3.175106;0.880163;0.186343;-2.639869;-0.595215;-0.521729;0.083008;0.489869;0.547887;-0.333799;0.590277
29444;9.475136;3.712840;3.841113;0.975374;0.080444;-2.960262;-0.570557;-0.549805;0.086670;0.500055;0.559475;-0.314797;0.581236
29445;10.213335;4.128034;4.079394;0.946758;0.002149;-3.130523;-0.531494;-0.578369;0.101074;0.510661;0.571354;-0.295246;0.570622
29446;11.420871;4.624332;3.922198;0.843985;-0.025762;-3.149815;-0.512451;-0.606201;0.102539;0.521403;0.582550;-0.275979;0.559116
29447;12.701974;5.400296;3.481874;0.568896;0.004961;-3.050658;-0.478760;-0.625732;0.112549;0.532746;0.591741;-0.258165;0.547151
29448;13.339050;5.765615;2.936946;0.127963;0.079741;-2.880179;-0.448730;-0.642578;0.114258;0.545310;0.597896;-0.242700;0.535027
29449;13.018204;5.417900;2.380345;-0.335979;0.172919;-2.704474;-0.423096;-0.675781;0.100586;0.559297;0.600833;-0.229626;0.522933
29450;12.012142;4.719800;1.898053;-0.762890;0.252378;-2.575584;-0.400391;-0.687012;0.091797;0.574755;0.600857;-0.218596;0.510728
29451;10.936862;3.936455;1.588402;-1.075687;0.282437;-2.488679;-0.370605;-0.702881;0.083496;0.591157;0.598784;-0.209079;0.498274
29452;9.903243;3.264463;1.363860;-1.207902;0.287981;-2.430772;-0.337402;-0.717041;0.063965;0.607675;0.595623;-0.200268;0.485652
29453;8.973973;2.805260;1.373775;-1.190084;0.263037;-2.405931;-0.317383;-0.739990;0.044678;0.623661;0.592294;-0.191550;0.472804
29454;8.105833;2.504528;1.553893;-1.095427;0.215426;-2.407687;-0.286133;-0.747070;0.025146;0.638809;0.589338;-0.182626;0.459621
29455;7.343187;2.369035;1.749658;-0.969063;0.163844;-2.401595;-0.248779;-0.760498;0.021973;0.652931;0.586952;-0.173448;0.446188
29456;6.906354;2.402769;1.938982;-0.830426;0.117050;-2.375693;-0.227295;-0.772949;0.011230;0.665903;0.585191;-0.164054;0.432678
29457;6.675203;2.581729;1.968282;-0.676166;0.086113;-2.320636;-0.201416;-0.777832;-0.004395;0.677604;0.584063;-0.154493;0.419350
29458;6.547531;2.866987;1.898993;-0.566536;0.073671;-2.221471;-0.172852;-0.790039;-0.003418;0.688159;0.583232;-0.145063;0.406490
29459;6.594065;3.113740;1.786958;-0.546299;0.075200;-2.072066;-0.147705;-0.791504;-0.022461;0.697868;0.582131;-0.136233;0.394390
29460;6.631446;3.186566;1.631426;-0.593978;0.087591;-1.886067;-0.124756;-0.804199;-0.023193;0.707020;0.580317;-0.128374;0.383243
29461;6.698629;3.221112;1.572085;-0.666857;0.110071;-1.674147;-0.103271;-0.799316;-0.041504;0.715688;0.577631;-0.121611;0.373288
29462;6.870181;3.164319;1.575195;-0.725903;0.142353;-1.451099;-0.080811;-0.798828;-0.041504;0.723837;0.574142;-0.115904;0.364675
29463;7.096876;3.049470;1.613219;-0.738166;0.193493;-1.213384;-0.074707;-0.802490;-0.061523;0.731246;0.570101;-0.111049;0.357677
29464;7.133512;2.889976;1.585814;-0.702936;0.242332;-0.979696;-0.050049;-0.805176;-0.066406;0.737749;0.565836;-0.106906;0.352315
29465;7.178903;2.713112;1.487474;-0.608592;0.270697;-0.748283;-0.044434;-0.802490;-0.079834;0.743086;0.561813;-0.103402;0.348564
29466;7.440219;2.565600;1.472219;-0.450640;0.254869;-0.511175;-0.047119;-0.806152;-0.074219;0.746940;0.558578;-0.100655;0.346323
29467;7.934248;2.628618;1.633139;-0.255789;0.212563;-0.255592;-0.032715;-0.803711;-0.080322;0.749090;0.556451;-0.098803;0.345637
29468;8.527538;2.854278;1.856959;-0.069047;0.141375;0.009611;-0.034424;-0.806396;-0.082275;0.749547;0.555472;-0.098099;0.346420
29469;8.942629;3.027485;2.087515;0.076133;0.064937;0.273664;-0.030029;-0.802979;-0.086426;0.748501;0.555404;-0.098686;0.348618
29470;9.179057;3.174408;2.235493;0.181008;-0.031919;0.521829;-0.042969;-0.804443;-0.092285;0.746158;0.556060;-0.100730;0.351993
29471;9.676147;3.203822;2.255280;0.264633;-0.156511;0.798386;-0.052246;-0.798828;-0.068848;0.742483;0.557349;-0.104593;0.356568
29472;11.236583;3.522305;2.110068;0.326370;-0.306196;1.145608;-0.071533;-0.808594;-0.068359;0.737286;0.559128;-0.110795;0.362643
29473;12.900854;3.857298;2.048149;0.319199;-0.458024;1.552693;-0.097656;-0.809814;-0.065918;0.730645;0.560862;-0.119851;0.370442
29474;13.300902;4.034289;2.252253;0.256934;-0.602378;1.952079;-0.119873;-0.795654;-0.061035;0.722735;0.562131;-0.131826;0.379847
29475;11.304680;4.055001;2.805720;0.162303;-0.720623;2.222194;-0.152100;-0.798584;-0.060303;0.714032;0.562721;-0.146042;0.390096
29476;8.758232;3.864158;3.263224;0.048442;-0.828001;2.368611;-0.177002;-0.788330;-0.062988;0.704958;0.562575;-0.161899;0.400415
29477;7.371679;3.701205;3.666184;-0.049869;-0.921489;2.342594;-0.220215;-0.781250;-0.050537;0.695993;0.561952;-0.178445;0.409831
29478;7.299999;3.974258;4.004445;-0.233157;-1.009023;2.228511;-0.250244;-0.784180;-0.048584;0.687827;0.560499;-0.195502;0.417748
29479;7.729695;4.381690;4.286081;-0.584327;-1.066860;2.086202;-0.277832;-0.769287;-0.052246;0.681418;0.557235;-0.213370;0.423831
29480;8.793287;4.509489;4.571984;-1.011700;-1.058702;1.931955;-0.296387;-0.754395;-0.063721;0.677269;0.551563;-0.231898;0.428145
29481;10.413114;4.330944;4.262824;-1.378594;-1.000120;1.835693;-0.324463;-0.740479;-0.074463;0.674972;0.543566;-0.250866;0.431295
29482;11.588276;3.792856;3.548403;-1.547403;-0.907614;1.793318;-0.345947;-0.732910;-0.092529;0.673476;0.534138;-0.269619;0.434089
29483;12.065585;3.176417;2.826332;-1.452165;-0.832135;1.795476;-0.369873;-0.716553;-0.103760;0.671421;0.524734;-0.287503;0.437253
29484;11.930954;2.496820;2.623764;-1.106153;-0.784528;1.818767;-0.393555;-0.707031;-0.107178;0.667609;0.516837;-0.303853;0.441420
29485;11.132083;1.847432;3.245343;-0.471676;-0.734570;1.880208;-0.423096;-0.682373;-0.109375;0.660733;0.511965;-0.317757;0.447609
29486;10.038379;1.729090;4.101419;0.388181;-0.683720;1.913341;-0.445557;-0.672119;-0.094482;0.649999;0.511395;-0.328222;0.456340
29487;9.059099;2.248807;4.770816;1.192686;-0.607578;1.883110;-0.464600;-0.673096;-0.079102;0.635939;0.514805;-0.334970;0.467282
29488;8.673638;3.123117;4.696409;1.627569;-0.501606;1.803573;-0.487061;-0.650146;-0.063232;0.620367;0.520118;-0.338983;0.479283
29489;7.987080;2.414758;4.382363;1.994576;-0.449593;1.768632;-0.498291;-0.638672;-0.034912;0.603201;0.526975;-0.340941;0.492143
29490;8.725921;1.874010;4.806476;2.878936;-0.212379;1.738954;-0.523438;-0.621826;-0.007324;0.582559;0.537047;-0.337713;0.508091
29491;8.893039;4.006003;4.149746;3.547533;-0.056954;1.637494;-0.537842;-0.612549;0.031982;0.559258;0.549489;-0.330121;0.525655
29492;8.659833;6.087763;3.142196;3.116326;0.174547;1.787547;-0.561768;-0.596680;0.066650;0.537367;0.557958;-0.323685;0.543275
29493;8.332511;6.761149;2.467945;1.936956;0.212709;1.871713;-0.575439;-0.580078;0.079590;0.520300;0.560359;-0.322560;0.557889
29494;8.432233;6.223189;2.532641;1.099970;0.272331;1.900822;-0.588379;-0.552734;0.086182;0.506959;0.558537;-0.325058;0.570409
29495;8.490305;5.816220;2.759861;0.601592;0.314091;1.918612;-0.606201;-0.540283;0.089600;0.495801;0.554193;-0.329715;0.581669
29496;8.185098;5.620644;2.980372;0.071205;0.297436;1.893513;-0.623047;-0.518066;0.094482;0.487039;0.547660;-0.336798;0.591125
29497;8.104186;5.227458;3.262642;-0.382814;0.244771;1.813544;-0.641846;-0.501221;0.072510;0.480451;0.539648;-0.345861;0.598605
29498;7.920922;4.753040;3.563124;-0.612280;0.179309;1.708804;-0.656006;-0.483887;0.075684;0.475158;0.531190;-0.355798;0.604541
29499;7.671225;4.505827;3.834995;-0.613260;0.103355;1.551487;-0.670166;-0.470215;0.072021;0.470299;0.523492;-0.365241;0.609405
29500;7.548740;4.536201;4.166882;-0.486648;0.032999;1.348155;-0.678955;-0.454834;0.056641;0.465625;0.517184;-0.373359;0.613447
29501;7.722348;4.848480;4.534235;-0.404890;-0.031985;1.095348;-0.684326;-0.435547;0.060547;0.461673;0.512227;-0.380192;0.616389
29502;8.449614;5.234847;4.918318;-0.444752;-0.071038;0.811100;-0.699707;-0.428467;0.060791;0.459143;0.508213;-0.386101;0.617927
29503;9.607533;5.693707;5.128008;-0.586470;-0.054681;0.512350;-0.703369;-0.421875;0.055420;0.458776;0.504511;-0.391387;0.617908
29504;10.413388;5.641206;4.933812;-0.759836;0.005338;0.204962;-0.695557;-0.421387;0.051025;0.460909;0.500816;-0.396023;0.616370
29505;10.554918;5.029011;4.350899;-0.837482;0.038359;-0.099991;-0.695557;-0.426514;0.040283;0.465027;0.497649;-0.399629;0.613508
29506;11.257332;4.653209;4.067611;-0.827778;0.058324;-0.383693;-0.695312;-0.425293;0.030762;0.470630;0.495319;-0.401919;0.609613
29507;12.738372;4.616134;4.420224;-0.776731;0.102095;-0.630927;-0.688965;-0.437744;0.026611;0.477388;0.493763;-0.402728;0.605069
29508;14.491982;4.693758;5.176574;-0.603033;0.207299;-0.890536;-0.694824;-0.447266;0.024170;0.485062;0.493209;-0.401137;0.600456
29509;15.135366;4.395314;5.378108;-0.291243;0.338271;-1.153175;-0.675293;-0.461426;0.012695;0.493141;0.494098;-0.396332;0.596322
29510;13.403653;3.614671;4.721879;0.133290;0.441437;-1.434140;-0.668701;-0.476074;0.010254;0.501179;0.497071;-0.387786;0.592758
29511;11.148320;3.110514;3.837712;0.522572;0.446820;-1.739396;-0.650879;-0.499023;0.012695;0.509021;0.502531;-0.375946;0.589088
29512;9.107771;2.683185;3.219074;0.826383;0.357354;-2.082956;-0.645752;-0.520264;0.013916;0.516848;0.510650;-0.361437;0.584353
29513;7.844466;2.517471;2.936054;1.004974;0.203698;-2.414105;-0.620850;-0.553223;0.017578;0.524858;0.521050;-0.345171;0.577830
29514;7.672006;2.779643;2.959469;1.022619;0.041122;-2.659837;-0.596436;-0.579834;0.037109;0.533279;0.532728;-0.328301;0.569238
29515;8.154777;3.232042;2.995625;0.927343;-0.102861;-2.796040;-0.576172;-0.614258;0.041260;0.542022;0.544755;-0.311699;0.558836
29516;9.009937;3.976527;3.059013;0.731949;-0.199803;-2.845747;-0.536133;-0.628174;0.044189;0.551345;0.556123;-0.296054;0.546898
29517;10.341908;4.970796;3.119143;0.371772;-0.213900;-2.778334;-0.506592;-0.651123;0.059814;0.561669;0.565418;-0.282244;0.534011
29518;11.723427;5.882500;3.086502;-0.201112;-0.114488;-2.598591;-0.489502;-0.684570;0.048340;0.573822;0.570889;-0.271208;0.520827
29519;12.820085;6.194093;2.829489;-0.862229;0.078414;-2.361875;-0.455322;-0.696045;0.036865;0.588305;0.571538;-0.263154;0.507929
29520;12.899660;5.700932;2.214766;-1.388049;0.310970;-2.110720;-0.426025;-0.718750;0.018311;0.604464;0.567824;-0.257258;0.496001
29521;12.063449;4.756288;1.575484;-1.736364;0.499383;-1.897348;-0.403076;-0.720703;-0.000977;0.621518;0.560851;-0.252753;0.485055
29522;11.206444;3.749803;1.109104;-1.907713;0.600179;-1.731981;-0.385498;-0.734619;-0.031738;0.638594;0.551969;-0.249067;0.474861
