// Start Time: Unknown
// Update Rate: 60.0Hz
// Filter Profile: human (46.1)
// Firmware Version: 4.4.0
PacketCounter;Acc_X;Acc_Y;Acc_Z;Gyr_X;Gyr_Y;Gyr_Z;Mag_X;Mag_Y;Mag_Z;Quat_q0;Quat_q1;Quat_q2;Quat_q3
28597;4.436303;-0.866002;8.711226;-0.001509;-0.001841;-0.001048;-0.743164;0.243408;-0.325439;0.169280;-0.236994;0.004180;-0.956640
28598;4.442965;-0.877410;8.727193;-0.000259;-0.002329;-0.000535;-0.747314;0.243652;-0.321533;0.169275;-0.237012;0.004177;-0.956637
28599;4.443419;-0.877547;8.726948;-0.002515;-0.003741;-0.001218;-0.753174;0.244385;-0.318604;0.169259;-0.237052;0.004190;-0.956629
28600;4.460405;-0.889932;8.724921;-0.000755;-0.000920;-0.000524;-0.749268;0.243164;-0.312012;0.169254;-0.237061;0.004194;-0.956628
28601;4.445576;-0.909147;8.717311;-0.000746;0.000429;0.000365;-0.743896;0.252930;-0.327881;0.169255;-0.237059;0.004202;-0.956629
28602;4.420639;-0.875521;8.737521;-0.001003;0.003486;-0.002449;-0.749268;0.242920;-0.320557;0.169234;-0.237033;0.004212;-0.956639
28603;4.451694;-0.868672;8.743494;-0.000487;0.002758;0.000900;-0.747314;0.242432;-0.323242;0.169241;-0.237012;0.004224;-0.956643
28604;4.449192;-0.868237;8.718307;-0.001501;-0.000491;-0.000159;-0.749512;0.250000;-0.320312;0.169237;-0.237017;0.004237;-0.956642
28605;4.450760;-0.899804;8.708972;-0.001737;0.003246;0.000388;-0.750732;0.238037;-0.316650;0.169237;-0.236994;0.004259;-0.956648
28606;4.429667;-0.877078;8.720128;-0.001495;0.002876;-0.000854;-0.756836;0.237793;-0.321045;0.169228;-0.236975;0.004277;-0.956654
28607;4.448075;-0.868821;8.718819;-0.001245;0.003855;-0.001207;-0.747070;0.236328;-0.329834;0.169217;-0.236946;0.004295;-0.956663
28608;4.441404;-0.878840;8.727844;-0.002250;0.001955;-0.001378;-0.744873;0.242920;-0.322021;0.169203;-0.236935;0.004318;-0.956668
28609;4.449069;-0.900546;8.709760;-0.000729;0.003127;0.002142;-0.746582;0.241455;-0.320068;0.169220;-0.236913;0.004338;-0.956670
28610;4.440345;-0.879272;8.728339;-0.001994;0.006302;-0.002425;-0.744873;0.240234;-0.322266;0.169198;-0.236869;0.004366;-0.956685
28611;4.437375;-0.878784;8.703398;-0.000487;0.002757;0.000900;-0.755859;0.246094;-0.320801;0.169206;-0.236850;0.004384;-0.956688
28612;4.433046;-0.889327;8.737675;0.000259;0.002328;0.000536;-0.749268;0.239014;-0.324951;0.169213;-0.236836;0.004396;-0.956690
28613;4.436552;-0.878901;8.703806;-0.001244;0.003855;-0.001207;-0.754150;0.239014;-0.319336;0.169203;-0.236809;0.004420;-0.956699
28614;4.446237;-0.901164;8.711142;-0.001982;0.005633;0.000047;-0.755859;0.241699;-0.326904;0.169200;-0.236772;0.004454;-0.956708
28615;4.456219;-0.871683;8.728262;-0.002728;0.006061;0.000412;-0.742188;0.241943;-0.320801;0.169201;-0.236732;0.004499;-0.956718
28616;4.423801;-0.879074;8.722904;-0.002970;0.006430;0.001654;-0.750000;0.237793;-0.323486;0.169212;-0.236689;0.004549;-0.956726
28617;4.435625;-0.881109;8.730553;-0.003229;0.004102;0.001117;-0.750244;0.238525;-0.321533;0.169214;-0.236665;0.004594;-0.956731
28618;4.439139;-0.892516;8.721619;-0.003973;0.002513;0.003065;-0.740234;0.234131;-0.322021;0.169231;-0.236657;0.004647;-0.956730
28619;4.431952;-0.881690;8.705867;-0.001975;0.008998;-0.000645;-0.749268;0.247803;-0.317139;0.169219;-0.236586;0.004683;-0.956750
28620;4.430913;-0.902901;8.731383;0.000758;0.006304;-0.001751;-0.757080;0.244629;-0.320557;0.169218;-0.236552;0.004705;-0.956758
28621;4.451219;-0.873712;8.730610;0.001515;0.005206;0.000356;-0.753906;0.242432;-0.321045;0.169232;-0.236525;0.004721;-0.956762
28622;4.416791;-0.901213;8.724862;-0.001486;0.004223;0.000036;-0.745605;0.243164;-0.316895;0.169234;-0.236508;0.004756;-0.956766
28623;4.435059;-0.893047;8.723640;-0.000982;0.004164;0.000913;-0.746826;0.248291;-0.316406;0.169246;-0.236488;0.004791;-0.956769
28624;4.442846;-0.884190;8.740438;-0.003474;0.006488;0.000777;-0.754639;0.246826;-0.320068;0.169262;-0.236459;0.004859;-0.956773
28625;4.420705;-0.892332;8.717136;-0.000220;0.006432;0.002328;-0.747803;0.249512;-0.321289;0.169296;-0.236429;0.004901;-0.956774
28626;4.436453;-0.904804;8.715751;-0.003491;0.005809;-0.002584;-0.758545;0.240723;-0.324219;0.169291;-0.236395;0.004966;-0.956783
28627;4.421316;-0.872158;8.718228;0.001022;0.004596;0.001952;-0.756348;0.244873;-0.316650;0.169312;-0.236371;0.004981;-0.956785
28628;4.414413;-0.882066;8.727358;-0.001243;0.003854;-0.001205;-0.742432;0.249023;-0.320557;0.169311;-0.236378;0.005013;-0.956783
28629;4.426573;-0.883602;8.734895;-0.000244;0.002387;-0.000340;-0.745605;0.243896;-0.322754;0.169331;-0.236354;0.005054;-0.956785
28630;4.438935;-0.885060;8.742337;0.000251;0.000979;-0.000352;-0.755371;0.239990;-0.323975;0.169336;-0.236337;0.005073;-0.956788
28631;4.438868;-0.885033;8.742374;-0.000503;0.000059;-0.000877;-0.754639;0.242920;-0.321777;0.169323;-0.236343;0.005079;-0.956789
28632;4.438664;-0.863991;8.717487;-0.001484;0.002205;0.001618;-0.741943;0.244385;-0.312988;0.169337;-0.236342;0.005108;-0.956787
28633;4.436174;-0.885048;8.717257;-0.002733;0.000675;0.002687;-0.758789;0.240479;-0.320312;0.169360;-0.236366;0.005154;-0.956777
28634;4.425552;-0.863345;8.710344;-0.001494;0.002874;-0.000853;-0.745605;0.238037;-0.320068;0.169339;-0.236377;0.005164;-0.956778
28635;4.414993;-0.883919;8.753354;-0.001996;0.000916;-0.000149;-0.750977;0.244141;-0.322510;0.169313;-0.236370;0.005173;-0.956784
28636;4.429077;-0.895713;8.726406;-0.000487;0.002756;0.000902;-0.755127;0.240723;-0.323730;0.169329;-0.236350;0.005194;-0.956786
28637;4.430846;-0.875232;8.726946;-0.000739;0.003794;-0.000328;-0.745850;0.240234;-0.321045;0.169312;-0.236325;0.005200;-0.956795
28638;4.428118;-0.895938;8.726869;-0.000990;0.002815;0.000025;-0.746338;0.241211;-0.319336;0.169301;-0.236296;0.005212;-0.956804
28639;4.436129;-0.886774;8.743588;0.000518;0.004654;0.001075;-0.750977;0.244873;-0.326416;0.169306;-0.236264;0.005221;-0.956811
28640;4.435654;-0.865590;8.718860;0.000008;0.001348;0.000890;-0.746582;0.240967;-0.325684;0.169332;-0.236230;0.005238;-0.956815
28641;4.420494;-0.884962;8.711359;-0.002231;0.002633;0.001983;-0.749756;0.239014;-0.324951;0.169340;-0.236178;0.005261;-0.956826
28642;4.435022;-0.887580;8.744068;-0.002482;0.001654;0.002335;-0.749023;0.244629;-0.323730;0.169328;-0.236147;0.005273;-0.956836
28643;4.417387;-0.906564;8.711379;-0.002978;0.005079;0.000766;-0.753418;0.247070;-0.322266;0.169349;-0.236100;0.005318;-0.956843
28644;4.431729;-0.887815;8.719237;-0.001744;0.001895;-0.000501;-0.759766;0.252686;-0.319824;0.169373;-0.236106;0.005354;-0.956838
28645;4.441722;-0.889024;8.701435;-0.003237;0.002752;0.000228;-0.751221;0.241455;-0.317871;0.169434;-0.236152;0.005427;-0.956815
28646;4.422942;-0.867131;8.737770;-0.001484;0.002204;0.001619;-0.747314;0.244873;-0.323486;0.169426;-0.236180;0.005442;-0.956810
28647;4.429042;-0.878890;8.753971;-0.002490;0.000306;0.001445;-0.752441;0.233887;-0.326416;0.169456;-0.236164;0.005479;-0.956808
28648;4.409949;-0.887837;8.755501;-0.003228;0.002082;0.002700;-0.746582;0.246582;-0.320068;0.169381;-0.236120;0.005458;-0.956832
28649;4.424046;-0.900287;8.728487;-0.005726;0.001039;0.003255;-0.755127;0.243164;-0.316895;0.169440;-0.236130;0.005539;-0.956819
28650;4.430274;-0.891054;8.719645;-0.000998;-0.000551;0.000716;-0.750244;0.245605;-0.323730;0.169426;-0.236207;0.005548;-0.956802
28651;4.426105;-0.880611;8.728811;-0.002993;0.002383;-0.001013;-0.748047;0.246582;-0.322021;0.169439;-0.236181;0.005588;-0.956806
28652;4.438500;-0.882349;8.736216;-0.000243;0.000369;0.001242;-0.743652;0.245117;-0.322998;0.169491;-0.236175;0.005617;-0.956798
28653;4.425837;-0.881157;8.728892;-0.002993;0.000365;0.000568;-0.759277;0.245361;-0.331543;0.169529;-0.236142;0.005661;-0.956799
28654;4.400616;-0.878740;8.714195;-0.003487;-0.000246;0.002162;-0.743408;0.240479;-0.323730;0.169545;-0.236097;0.005682;-0.956807
28655;4.432005;-0.872401;8.720037;-0.002742;0.001344;0.000216;-0.749023;0.235596;-0.319580;0.169524;-0.236043;0.005695;-0.956824
28656;4.444400;-0.874307;8.727425;-0.002239;0.001284;0.001094;-0.747559;0.241943;-0.319092;0.169425;-0.236057;0.005670;-0.956839
28657;4.421404;-0.872096;8.738054;0.000746;-0.000428;-0.000365;-0.756104;0.241455;-0.318848;0.169411;-0.236085;0.005660;-0.956834
28658;4.429272;-0.893768;8.719877;-0.002474;0.003000;0.003226;-0.759277;0.239990;-0.322998;0.169376;-0.236134;0.005671;-0.956828
28659;4.427151;-0.884029;8.754410;-0.000495;0.001407;0.000013;-0.744385;0.241211;-0.322510;0.169291;-0.236158;0.005637;-0.956837
28660;4.437283;-0.885124;8.736553;-0.002741;0.001344;0.000216;-0.749023;0.250244;-0.324951;0.169291;-0.236118;0.005651;-0.956848
28661;4.408027;-0.892886;8.755955;-0.000251;-0.000979;0.000352;-0.745361;0.242188;-0.322998;0.169398;-0.236096;0.005695;-0.956834
28662;4.441424;-0.874907;8.702401;-0.000251;-0.000979;0.000352;-0.744385;0.248779;-0.326416;0.169407;-0.236069;0.005691;-0.956839
28663;4.420897;-0.873441;8.738176;-0.002498;-0.001042;0.000555;-0.750732;0.241211;-0.321289;0.169522;-0.236005;0.005746;-0.956834
28664;4.441704;-0.896771;8.727133;-0.000989;-0.001222;0.003188;-0.747314;0.244385;-0.323486;0.169503;-0.236034;0.005739;-0.956830
28665;4.427263;-0.864261;8.729268;-0.001744;0.001895;-0.000500;-0.745850;0.240234;-0.323486;0.169524;-0.235994;0.005758;-0.956836
28666;4.420863;-0.874330;8.738104;0.000008;-0.000671;0.002471;-0.751953;0.250732;-0.321777;0.169509;-0.235960;0.005738;-0.956847
28667;4.445707;-0.856424;8.727967;-0.002976;0.005078;0.000769;-0.750977;0.240479;-0.321289;0.169618;-0.235953;0.005815;-0.956829
28668;4.446972;-0.888245;8.718716;-0.002482;0.001652;0.002336;-0.748535;0.247803;-0.314697;0.169569;-0.235964;0.005812;-0.956835
28669;4.411107;-0.884902;8.722114;-0.002733;0.002691;0.001107;-0.749512;0.244141;-0.319336;0.169642;-0.236052;0.005881;-0.956800
28670;4.416826;-0.875510;8.713558;-0.002473;0.005017;0.001647;-0.747314;0.238770;-0.321533;0.169654;-0.236058;0.005913;-0.956796
28671;4.424664;-0.866711;8.730343;-0.002230;0.004649;0.000404;-0.749023;0.242188;-0.318848;0.169574;-0.236016;0.005898;-0.956821
28672;4.396709;-0.884816;8.715552;-0.004234;0.002200;0.000946;-0.753418;0.239990;-0.324463;0.169543;-0.236051;0.005926;-0.956818
28673;4.390211;-0.895107;8.724407;-0.001752;0.000548;-0.001391;-0.746826;0.243164;-0.328857;0.169439;-0.236037;0.005890;-0.956840
28674;4.417764;-0.877657;8.739338;-0.000000;-0.002018;0.001580;-0.752197;0.247803;-0.327881;0.169472;-0.235939;0.005870;-0.956858
28675;4.418076;-0.877886;8.739157;-0.002506;-0.002389;-0.000337;-0.751709;0.246582;-0.327393;0.169529;-0.235901;0.005897;-0.956857
28676;4.420310;-0.888076;8.704519;0.000235;-0.003733;-0.000553;-0.755127;0.240967;-0.327148;0.169569;-0.235874;0.005891;-0.956857
28677;4.418875;-0.878016;8.738740;-0.000754;-0.000919;-0.000526;-0.745850;0.241455;-0.315674;0.169481;-0.235844;0.005847;-0.956880
28678;4.410633;-0.887300;8.722110;-0.001014;-0.003245;-0.001066;-0.745605;0.244629;-0.320312;0.169444;-0.235948;0.005846;-0.956861
28679;4.442675;-0.880366;8.727694;0.000478;-0.004101;-0.001795;-0.750977;0.248291;-0.317139;0.169475;-0.235987;0.005846;-0.956846
28680;4.436964;-0.890101;8.736209;0.000235;-0.003733;-0.000553;-0.751953;0.243896;-0.331055;0.169543;-0.236108;0.005878;-0.956804
28681;4.443676;-0.880090;8.727212;0.000738;-0.001775;-0.001256;-0.750488;0.244141;-0.325439;0.169531;-0.236001;0.005839;-0.956833
28682;4.421097;-0.877584;8.737659;-0.000519;-0.002634;-0.002659;-0.750488;0.242920;-0.325439;0.169513;-0.235981;0.005823;-0.956841
28683;4.438080;-0.889808;8.735672;-0.001006;-0.001898;-0.000175;-0.751221;0.251221;-0.326660;0.169492;-0.235955;0.005807;-0.956851
28684;4.425899;-0.888336;8.728132;0.000235;-0.003734;-0.000553;-0.745850;0.239014;-0.316162;0.169625;-0.235937;0.005842;-0.956832
28685;4.434909;-0.879083;8.744370;-0.000260;-0.002326;-0.000539;-0.752930;0.241211;-0.318604;0.169543;-0.236023;0.005815;-0.956825
28686;4.426695;-0.888296;8.727733;-0.000260;-0.002326;-0.000539;-0.752197;0.240723;-0.326904;0.169462;-0.236117;0.005789;-0.956817
28687;4.412499;-0.855496;8.729790;-0.001006;0.000120;-0.001755;-0.742676;0.237305;-0.323486;0.169377;-0.236057;0.005748;-0.956847
28688;4.429205;-0.867920;8.727920;-0.001995;-0.001103;0.001433;-0.741455;0.244629;-0.328613;0.169317;-0.235997;0.005715;-0.956872
28689;4.429378;-0.868248;8.727799;-0.001249;-0.001531;0.001068;-0.747803;0.250244;-0.316895;0.169429;-0.235860;0.005723;-0.956886
28690;4.435824;-0.879862;8.743827;-0.002004;-0.000431;-0.001039;-0.752686;0.248535;-0.323242;0.169568;-0.235950;0.005798;-0.956839
28691;4.429486;-0.868716;8.727698;0.000017;0.000676;0.003362;-0.742432;0.242676;-0.322266;0.169674;-0.235955;0.005829;-0.956819
28692;4.435681;-0.880284;8.743857;-0.000746;0.000428;0.000365;-0.754150;0.240234;-0.319092;0.169700;-0.235906;0.005832;-0.956826
28693;4.433378;-0.879851;8.718590;-0.001240;-0.000184;0.001959;-0.756836;0.242676;-0.323730;0.169597;-0.235988;0.005810;-0.956824
28694;4.435602;-0.859650;8.718908;-0.001483;0.000184;0.003201;-0.751953;0.243652;-0.324707;0.169542;-0.236011;0.005797;-0.956828
28695;4.445932;-0.882228;8.725847;-0.001735;-0.000795;0.003553;-0.749268;0.244873;-0.321533;0.169548;-0.235997;0.005799;-0.956831
28696;4.423006;-0.880375;8.736413;-0.002489;0.000304;0.001446;-0.752930;0.238525;-0.324707;0.169576;-0.236010;0.005826;-0.956823
28697;4.445655;-0.883088;8.725901;-0.000729;0.003122;0.002147;-0.749268;0.245605;-0.325439;0.169459;-0.235964;0.005779;-0.956855
28698;4.432509;-0.881823;8.718833;-0.001484;0.004222;0.000041;-0.750488;0.239990;-0.324219;0.169499;-0.235885;0.005797;-0.956867
28699;4.434502;-0.882699;8.744212;-0.000998;-0.000551;0.000716;-0.738037;0.239990;-0.318848;0.169420;-0.235867;0.005762;-0.956886
28700;4.427996;-0.871548;8.728171;-0.000729;0.003122;0.002147;-0.758789;0.241943;-0.322754;0.169455;-0.235823;0.005763;-0.956891
28701;4.431646;-0.882490;8.719204;-0.000235;0.001715;0.002134;-0.757324;0.236572;-0.318115;0.169350;-0.235864;0.005738;-0.956899
28702;4.431726;-0.852152;8.754128;-0.001475;0.003550;0.002512;-0.748291;0.243652;-0.314453;0.169142;-0.235949;0.005697;-0.956915
28703;4.422821;-0.861860;8.737787;-0.003236;0.000732;0.001811;-0.741211;0.246338;-0.320801;0.169140;-0.236064;0.005746;-0.956887
28704;4.411923;-0.892280;8.720950;-0.002481;-0.000368;0.003917;-0.755615;0.254639;-0.324219;0.169304;-0.236042;0.005800;-0.956863
28705;4.432986;-0.864188;8.719790;-0.005725;0.001036;0.003258;-0.743652;0.236084;-0.324951;0.169467;-0.236063;0.005926;-0.956828
28706;4.430603;-0.906896;8.744326;-0.001978;-0.000429;0.004795;-0.752441;0.239502;-0.325195;0.169403;-0.235981;0.005878;-0.956860
28707;4.420106;-0.885288;8.737384;-0.001986;0.002263;0.000744;-0.739258;0.240967;-0.323975;0.169295;-0.235937;0.005844;-0.956890
28708;4.419868;-0.885596;8.737473;-0.001492;0.000856;0.000730;-0.741455;0.240967;-0.326172;0.169350;-0.235840;0.005833;-0.956904
28709;4.428329;-0.876600;8.753973;-0.000746;0.000428;0.000365;-0.754639;0.240479;-0.328857;0.169381;-0.235728;0.005809;-0.956927
28710;4.444796;-0.867734;8.727314;-0.001240;0.001835;0.000379;-0.752441;0.248535;-0.319580;0.169269;-0.235651;0.005768;-0.956966
28711;4.431966;-0.866527;8.720077;-0.002238;0.001283;0.001095;-0.755615;0.241211;-0.325195;0.169330;-0.235718;0.005826;-0.956938
28712;4.429417;-0.887482;8.719830;-0.000980;0.002142;0.002499;-0.749756;0.251221;-0.324219;0.169236;-0.235701;0.005802;-0.956959
28713;4.423303;-0.867334;8.763474;-0.004224;0.001527;0.003419;-0.750000;0.242920;-0.322021;0.169398;-0.235683;0.005891;-0.956934
28714;4.424836;-0.878161;8.729111;-0.002976;0.001038;0.003932;-0.743652;0.240967;-0.320068;0.169392;-0.235694;0.005910;-0.956932
28715;4.441184;-0.890924;8.727382;-0.001986;0.002263;0.000744;-0.748535;0.243164;-0.324463;0.169382;-0.235681;0.005911;-0.956937
28716;4.415591;-0.888200;8.712900;-0.001734;0.003242;0.000393;-0.751709;0.244141;-0.324463;0.169375;-0.235628;0.005913;-0.956952
28717;4.423812;-0.879184;8.729527;-0.000494;0.001407;0.000014;-0.749023;0.245361;-0.316406;0.169354;-0.235609;0.005907;-0.956960
28718;4.432132;-0.869965;8.746125;0.000504;0.001959;-0.000702;-0.750732;0.239502;-0.322998;0.169362;-0.235690;0.005924;-0.956939
28719;4.419373;-0.868623;8.738862;-0.002992;0.000364;0.000569;-0.753662;0.240967;-0.323242;0.169257;-0.235693;0.005906;-0.956957
28720;4.410887;-0.878350;8.722298;-0.002993;-0.001655;0.002148;-0.749756;0.247559;-0.320801;0.169166;-0.235728;0.005897;-0.956964
28721;4.423723;-0.880400;8.729450;-0.002750;-0.002022;0.000905;-0.746338;0.239258;-0.322998;0.169224;-0.235783;0.005944;-0.956940
28722;4.415341;-0.889930;8.712850;-0.002003;-0.000430;-0.001039;-0.747070;0.239014;-0.322021;0.169154;-0.235762;0.005915;-0.956958
28723;4.428006;-0.891657;8.720121;-0.000998;-0.000552;0.000716;-0.747803;0.240234;-0.319092;0.169086;-0.235759;0.005883;-0.956971
28724;4.432595;-0.850906;8.720778;-0.002482;-0.000370;0.003918;-0.740723;0.250244;-0.317871;0.169048;-0.235805;0.005887;-0.956966
28725;4.447111;-0.884382;8.718447;-0.003748;-0.002574;0.001622;-0.748535;0.243164;-0.327148;0.169264;-0.235855;0.005974;-0.956915
28726;4.434766;-0.883394;8.710939;-0.002498;-0.001043;0.000555;-0.757080;0.250244;-0.321045;0.169264;-0.235796;0.005968;-0.956930
28727;4.424467;-0.882996;8.728811;-0.001986;0.000243;0.002324;-0.744629;0.247314;-0.313477;0.169312;-0.235872;0.006026;-0.956902
28728;4.428634;-0.894100;8.719552;-0.002004;-0.002450;0.000540;-0.753174;0.251465;-0.317139;0.169399;-0.236001;0.006081;-0.956855
28729;4.430950;-0.873778;8.719869;-0.000737;0.001774;0.001257;-0.758545;0.246338;-0.320801;0.169494;-0.236092;0.006147;-0.956815
28730;4.435220;-0.884683;8.710577;-0.001519;-0.005203;-0.000366;-0.752686;0.233643;-0.318115;0.169441;-0.236213;0.006151;-0.956794
28731;4.435635;-0.884879;8.710346;-0.000998;-0.000552;0.000716;-0.752930;0.239990;-0.320557;0.169228;-0.236284;0.006074;-0.956815
28732;4.448471;-0.886601;8.717528;-0.001259;-0.002878;0.000175;-0.750732;0.234375;-0.321777;0.169122;-0.236345;0.006040;-0.956819
28733;4.438505;-0.864816;8.710357;-0.002247;-0.002083;0.001783;-0.749023;0.242676;-0.317139;0.168965;-0.236365;0.005974;-0.956842
28734;4.428416;-0.864514;8.728117;-0.002993;-0.001656;0.002149;-0.751709;0.247803;-0.318604;0.168946;-0.236444;0.005996;-0.956826
28735;4.445244;-0.877179;8.726141;-0.001752;-0.001471;0.000190;-0.750488;0.243652;-0.328613;0.168968;-0.236518;0.006039;-0.956803
28736;4.449272;-0.888056;8.716971;-0.000494;0.001407;0.000015;-0.755127;0.246094;-0.320557;0.168973;-0.236418;0.006015;-0.956827
28737;4.413613;-0.884272;8.720320;0.000260;0.000306;0.002121;-0.744629;0.250244;-0.323486;0.168959;-0.236466;0.006026;-0.956818
28738;4.459743;-0.858523;8.733984;-0.001491;0.002875;-0.000848;-0.749756;0.242920;-0.322754;0.169095;-0.236401;0.006080;-0.956810
28739;4.434331;-0.877162;8.744291;-0.002984;-0.000310;0.003041;-0.753418;0.245117;-0.320557;0.169094;-0.236396;0.006090;-0.956811
28740;4.434264;-0.877628;8.744279;-0.001491;0.000855;0.000731;-0.754395;0.239258;-0.327637;0.169068;-0.236432;0.006104;-0.956807
28741;4.429746;-0.876556;8.693722;-0.001995;-0.001104;0.001433;-0.744629;0.246338;-0.318359;0.168974;-0.236388;0.006057;-0.956834
28742;4.440714;-0.868311;8.735367;-0.000252;-0.000980;0.000351;-0.750244;0.247559;-0.322754;0.169049;-0.236419;0.006078;-0.956813
28743;4.425904;-0.887400;8.727635;0.000000;0.000000;0.000000;-0.753174;0.239746;-0.316162;0.169095;-0.236413;0.006097;-0.956806
28744;4.440817;-0.868442;8.735301;-0.000998;-0.000552;0.000716;-0.744629;0.239502;-0.321777;0.168988;-0.236510;0.006074;-0.956802
28745;4.442514;-0.878746;8.700891;-0.002237;0.001283;0.001097;-0.758301;0.243408;-0.319336;0.168976;-0.236471;0.006055;-0.956813
28746;4.448842;-0.890767;8.716914;-0.005499;-0.002025;0.000233;-0.745117;0.239502;-0.322510;0.168864;-0.236574;0.006084;-0.956808
28747;4.428416;-0.868429;8.727728;-0.001492;-0.001165;0.002310;-0.750000;0.239014;-0.324463;0.168867;-0.236545;0.006055;-0.956814
28748;4.449367;-0.891764;8.716544;-0.002759;-0.003369;0.000014;-0.757080;0.247070;-0.326904;0.168797;-0.236538;0.006018;-0.956829
28749;4.437260;-0.890630;8.708932;-0.002256;-0.003430;0.000891;-0.753662;0.243652;-0.318115;0.168779;-0.236544;0.006033;-0.956830
28750;4.442123;-0.870982;8.734385;-0.000252;-0.000980;0.000351;-0.750732;0.253418;-0.322021;0.168723;-0.236618;0.006032;-0.956822
28751;4.420886;-0.878753;8.710606;-0.000736;0.001773;0.001258;-0.748047;0.239990;-0.329834;0.168836;-0.236614;0.006106;-0.956803
28752;4.446040;-0.882048;8.725245;-0.001250;-0.001532;0.001067;-0.746826;0.244629;-0.323486;0.168829;-0.236512;0.006056;-0.956829
28753;4.429532;-0.870113;8.726995;-0.002246;-0.000064;0.000205;-0.749512;0.247559;-0.318359;0.168866;-0.236480;0.006067;-0.956831
28754;4.439795;-0.871236;8.709060;-0.000988;0.000794;0.001609;-0.746582;0.243164;-0.321045;0.168914;-0.236520;0.006104;-0.956812
28755;4.423021;-0.880568;8.735821;-0.001994;0.000916;-0.000146;-0.744141;0.246094;-0.326416;0.168922;-0.236507;0.006107;-0.956814
28756;4.441687;-0.872527;8.734452;-0.001482;0.002201;0.001624;-0.751953;0.241455;-0.320801;0.169020;-0.236408;0.006122;-0.956821
28757;4.435074;-0.882858;8.743342;-0.003988;0.001832;-0.000292;-0.754883;0.238281;-0.322998;0.168946;-0.236422;0.006129;-0.956830
28758;4.447572;-0.884939;8.750658;-0.002741;-0.000677;0.001798;-0.749512;0.243652;-0.326904;0.168828;-0.236439;0.006099;-0.956847
28759;4.432926;-0.883119;8.717924;-0.002005;-0.002450;0.000540;-0.755859;0.246582;-0.318848;0.168835;-0.236398;0.006089;-0.956856
28760;4.441778;-0.874086;8.734250;-0.000009;-0.001346;-0.000893;-0.746094;0.239014;-0.326904;0.168791;-0.236479;0.006099;-0.956844
28761;4.450459;-0.865059;8.750663;-0.002246;-0.000064;0.000205;-0.750244;0.246094;-0.332275;0.168771;-0.236399;0.006062;-0.956867
28762;4.429262;-0.873094;8.726833;-0.002489;0.000302;0.001448;-0.750977;0.243896;-0.323730;0.168821;-0.236280;0.006067;-0.956888
28763;4.452217;-0.875868;8.716159;-0.000486;-0.001289;0.004065;-0.742920;0.243164;-0.321045;0.168839;-0.236278;0.006063;-0.956885
28764;4.433414;-0.884504;8.717535;-0.001501;-0.000491;-0.000161;-0.755615;0.235107;-0.322266;0.168885;-0.236263;0.006062;-0.956881
28765;4.435787;-0.885530;8.742709;-0.002498;-0.001043;0.000555;-0.751221;0.236572;-0.324463;0.168706;-0.236294;0.006012;-0.956905
28766;4.440580;-0.844625;8.743342;-0.000504;-0.001960;0.000701;-0.752686;0.241699;-0.313721;0.168604;-0.236283;0.005951;-0.956926
28767;4.452945;-0.876951;8.715678;-0.001502;-0.002512;0.001418;-0.749268;0.247803;-0.321533;0.168525;-0.236415;0.005961;-0.956907
28768;4.442893;-0.876427;8.733448;-0.001250;-0.001532;0.001067;-0.755127;0.239014;-0.319824;0.168583;-0.236434;0.005989;-0.956892
28769;4.428250;-0.895837;8.725583;-0.002750;-0.002023;0.000906;-0.753174;0.244629;-0.320557;0.168462;-0.236499;0.005974;-0.956898
28770;4.440977;-0.876535;8.707925;-0.002488;0.000302;0.001448;-0.757812;0.242920;-0.320801;0.168435;-0.236531;0.005998;-0.956894
28771;4.453538;-0.878305;8.715239;0.000503;-0.000062;0.000877;-0.745117;0.242920;-0.322510;0.168342;-0.236578;0.005984;-0.956899
28772;4.430618;-0.876117;8.725843;-0.002246;-0.000064;0.000205;-0.750488;0.238037;-0.321045;0.168386;-0.236549;0.005983;-0.956898
28773;4.449699;-0.868272;8.724245;-0.003245;-0.002638;0.002500;-0.750244;0.244385;-0.323975;0.168326;-0.236581;0.005965;-0.956901
28774;4.430764;-0.877184;8.725661;-0.002730;0.002689;0.001114;-0.751953;0.240723;-0.333984;0.168339;-0.236539;0.005982;-0.956909
28775;4.438526;-0.898961;8.707431;-0.001994;0.000916;-0.000145;-0.745605;0.243652;-0.321045;0.168321;-0.236405;0.005939;-0.956946
28776;4.428604;-0.846452;8.735382;0.000010;0.001346;0.000893;-0.750488;0.242676;-0.323242;0.168371;-0.236385;0.005933;-0.956942
28777;4.446834;-0.890180;8.724015;-0.002246;-0.000064;0.000205;-0.751221;0.244385;-0.319336;0.168352;-0.236376;0.005933;-0.956948
28778;4.449301;-0.869919;8.724284;-0.000496;-0.002636;0.003172;-0.753418;0.246582;-0.318115;0.168359;-0.236434;0.005942;-0.956932
28779;4.440866;-0.900882;8.732531;-0.003989;-0.000189;0.001288;-0.751709;0.243652;-0.313965;0.168339;-0.236501;0.005995;-0.956919
28780;4.453424;-0.881578;8.714967;-0.000988;0.000793;0.001610;-0.751953;0.245605;-0.323242;0.168302;-0.236590;0.006017;-0.956903
28781;4.444776;-0.890866;8.698503;-0.000503;0.000062;-0.000877;-0.748047;0.247314;-0.323975;0.168293;-0.236583;0.006019;-0.956906
28782;4.430404;-0.879429;8.725618;-0.000745;0.000427;0.000366;-0.751953;0.250244;-0.322021;0.168355;-0.236551;0.006034;-0.956903
28783;4.457787;-0.861971;8.740697;0.000252;0.000980;-0.000350;-0.754150;0.239990;-0.325439;0.168394;-0.236554;0.006065;-0.956895
28784;4.442929;-0.881106;8.732959;-0.000747;-0.001594;0.001944;-0.750244;0.236816;-0.316895;0.168335;-0.236544;0.006030;-0.956909
28785;4.434590;-0.890618;8.716314;-0.002750;-0.002024;0.000906;-0.747803;0.243896;-0.327637;0.168248;-0.236612;0.006007;-0.956907
28786;4.436960;-0.870398;8.716634;-0.000988;0.000793;0.001610;-0.750000;0.244141;-0.318115;0.168300;-0.236535;0.005996;-0.956917
28787;4.436932;-0.892052;8.741465;-0.002498;-0.001044;0.000556;-0.749268;0.238770;-0.329346;0.168290;-0.236586;0.006017;-0.956906
28788;4.426812;-0.870253;8.734418;-0.001250;-0.001533;0.001067;-0.746582;0.240967;-0.326416;0.168273;-0.236513;0.005968;-0.956927
28789;4.439685;-0.872097;8.741565;-0.002005;-0.002451;0.000540;-0.751465;0.243164;-0.324951;0.168292;-0.236470;0.005944;-0.956935
28790;4.437661;-0.871727;8.716144;-0.002498;-0.001044;0.000556;-0.752197;0.246826;-0.320312;0.168277;-0.236456;0.005944;-0.956941
28791;4.437773;-0.893284;8.740913;-0.000252;-0.000980;0.000350;-0.744385;0.250244;-0.323242;0.168282;-0.236492;0.005959;-0.956931
28792;4.441879;-0.882517;8.706861;0.002246;0.000064;-0.000206;-0.752441;0.237305;-0.323975;0.168412;-0.236456;0.005964;-0.956917
28793;4.437867;-0.871820;8.716030;-0.002246;-0.000064;0.000206;-0.750977;0.239502;-0.321777;0.168317;-0.236444;0.005932;-0.956937
28794;4.446220;-0.863159;8.732585;-0.004481;0.003240;-0.000274;-0.753418;0.248779;-0.327881;0.168248;-0.236427;0.005939;-0.956953
28795;4.433459;-0.862120;8.725302;-0.001492;-0.001168;0.002311;-0.746338;0.243896;-0.328125;0.168293;-0.236395;0.005962;-0.956953
28796;4.452017;-0.884748;8.688869;-0.003253;-0.001962;0.000029;-0.755127;0.239502;-0.332764;0.168337;-0.236339;0.005963;-0.956959
28797;4.439435;-0.904804;8.706362;-0.000996;0.001469;-0.000861;-0.749512;0.246338;-0.328369;0.168253;-0.236238;0.005918;-0.956999
28798;4.431177;-0.883563;8.724808;-0.001742;0.001896;-0.000495;-0.750732;0.238525;-0.328125;0.168289;-0.236164;0.005926;-0.957011
28799;4.453962;-0.886026;8.714241;0.000000;0.000000;0.000000;-0.757568;0.241699;-0.318604;0.168244;-0.236111;0.005886;-0.957032
28800;4.443531;-0.863996;8.707383;-0.001239;0.001834;0.000382;-0.746582;0.252197;-0.327148;0.168136;-0.236166;0.005890;-0.957038
28801;4.449717;-0.875814;8.723482;-0.003746;-0.000555;0.000045;-0.751465;0.239502;-0.315918;0.168259;-0.236121;0.005946;-0.957027
28802;4.435269;-0.873879;8.690657;-0.000515;-0.005328;0.001385;-0.749756;0.240967;-0.322754;0.168196;-0.236231;0.005926;-0.957011
28803;4.446576;-0.865782;8.732144;-0.003504;-0.000920;-0.001199;-0.746582;0.242920;-0.317383;0.168153;-0.236236;0.005925;-0.957017
28804;4.450734;-0.876721;8.722872;-0.000755;-0.000918;-0.000527;-0.749023;0.253662;-0.320801;0.168162;-0.236278;0.005923;-0.957005
28805;4.438418;-0.875308;8.715400;-0.001762;-0.002817;-0.000704;-0.745605;0.244629;-0.326172;0.168259;-0.236320;0.005977;-0.956977
28806;4.455411;-0.887823;8.713317;-0.002508;-0.002390;-0.000337;-0.746338;0.240723;-0.320801;0.168306;-0.236287;0.005979;-0.956977
28807;4.445394;-0.865987;8.706234;-0.001249;-0.001533;0.001067;-0.748047;0.247314;-0.326660;0.168309;-0.236298;0.005965;-0.956974
28808;4.447743;-0.867108;8.731418;-0.002991;0.000363;0.000572;-0.750732;0.248291;-0.326416;0.168368;-0.236251;0.005990;-0.956975
28809;4.451584;-0.878138;8.722295;-0.000735;0.001772;0.001260;-0.752930;0.249512;-0.319824;0.168421;-0.236204;0.006007;-0.956978
28810;4.430571;-0.885716;8.698406;0.001480;-0.004222;-0.000049;-0.753906;0.246338;-0.318604;0.168457;-0.236275;0.006010;-0.956954
28811;4.463367;-0.848497;8.738726;-0.003022;-0.005695;-0.000530;-0.749268;0.237549;-0.324219;0.168437;-0.236376;0.006032;-0.956932
28812;4.440473;-0.877033;8.714179;-0.002005;-0.002452;0.000540;-0.750488;0.241943;-0.318359;0.168377;-0.236371;0.006000;-0.956944
28813;4.453489;-0.878785;8.721258;-0.001017;-0.003244;-0.001070;-0.751221;0.242188;-0.325195;0.168339;-0.236433;0.005987;-0.956935
28814;4.449761;-0.868232;8.730278;-0.001500;-0.000491;-0.000160;-0.753662;0.241455;-0.320801;0.168309;-0.236413;0.005974;-0.956946
28815;4.435056;-0.866089;8.697604;-0.000504;-0.001961;0.000701;-0.755127;0.245605;-0.319824;0.168258;-0.236452;0.005957;-0.956945
28816;4.466643;-0.880768;8.728242;-0.000242;0.000365;0.001244;-0.756592;0.241699;-0.326660;0.168238;-0.236490;0.005965;-0.956939
28817;4.462619;-0.848965;8.712565;-0.001239;-0.000188;0.001961;-0.750488;0.241211;-0.323730;0.168181;-0.236472;0.005952;-0.956954
28818;4.453701;-0.879714;8.721056;-0.001480;0.004222;0.000049;-0.749023;0.240234;-0.319336;0.168153;-0.236424;0.005943;-0.956971
28819;4.455626;-0.859371;8.721633;-0.000987;0.000792;0.001610;-0.752686;0.251953;-0.329346;0.168138;-0.236437;0.005931;-0.956970
28820;4.449215;-0.869630;8.730417;-0.002488;0.000301;0.001450;-0.744141;0.237061;-0.319824;0.168200;-0.236387;0.005975;-0.956972
28821;4.457127;-0.891540;8.712060;-0.002226;0.000603;0.003571;-0.748779;0.239258;-0.322510;0.168211;-0.236379;0.005958;-0.956972
28822;4.465537;-0.861628;8.703752;-0.002981;0.001708;0.001467;-0.748535;0.237305;-0.320801;0.168184;-0.236358;0.005953;-0.956981
28823;4.448738;-0.871060;8.730518;-0.000242;0.000365;0.001244;-0.747559;0.246582;-0.322754;0.168143;-0.236358;0.005918;-0.956989
28824;4.448529;-0.871125;8.730618;0.000262;0.002325;0.000544;-0.743896;0.239258;-0.318604;0.168198;-0.236326;0.005920;-0.956987
28825;4.437492;-0.879668;8.688938;-0.002246;-0.000064;0.000206;-0.749756;0.244385;-0.314697;0.168200;-0.236337;0.005910;-0.956984
28826;4.445877;-0.871100;8.705477;-0.002962;0.002375;0.004832;-0.753906;0.234375;-0.324463;0.168233;-0.236389;0.005950;-0.956965
28827;4.441598;-0.860944;8.714743;-0.001993;0.000916;-0.000144;-0.748779;0.243652;-0.326416;0.168103;-0.236371;0.005911;-0.956993
28828;4.447714;-0.872740;8.730872;-0.002235;0.001281;0.001100;-0.740723;0.241211;-0.319336;0.168124;-0.236321;0.005914;-0.957001
28829;4.438922;-0.882276;8.714440;-0.002235;0.001281;0.001100;-0.748047;0.240234;-0.320557;0.168185;-0.236305;0.005913;-0.956995
28830;4.441098;-0.862134;8.714880;-0.002991;0.000363;0.000573;-0.755127;0.239014;-0.323486;0.168162;-0.236312;0.005914;-0.956997
28831;4.444936;-0.873323;8.705735;-0.001974;0.001583;0.003221;-0.752930;0.239258;-0.318848;0.168090;-0.236306;0.005908;-0.957011
28832;4.457220;-0.896599;8.737993;-0.000735;0.001772;0.001261;-0.748535;0.240479;-0.317139;0.168020;-0.236330;0.005896;-0.957018
28833;4.456842;-0.875385;8.713351;-0.000230;0.003732;0.000561;-0.758301;0.246582;-0.321045;0.167996;-0.236337;0.005888;-0.957020
28834;4.437483;-0.883919;8.715007;-0.000977;0.002136;0.002505;-0.752197;0.240479;-0.317871;0.167961;-0.236363;0.005914;-0.957020
28835;4.445556;-0.874972;8.731747;-0.000984;0.004837;-0.001544;-0.750000;0.237305;-0.323730;0.167888;-0.236368;0.005910;-0.957031
28836;4.448982;-0.885810;8.722847;-0.001228;0.003179;0.001278;-0.754639;0.243896;-0.328857;0.167842;-0.236327;0.005885;-0.957050
28837;4.448512;-0.864636;8.698253;-0.000733;0.003795;-0.000316;-0.760010;0.249268;-0.314697;0.167810;-0.236258;0.005878;-0.957072
28838;4.458110;-0.886797;8.705499;0.000275;0.005693;-0.000139;-0.752686;0.243164;-0.315674;0.167739;-0.236316;0.005922;-0.957070
28839;4.436916;-0.863840;8.716841;-0.000240;0.002387;-0.000333;-0.753174;0.246094;-0.315186;0.167688;-0.236362;0.005930;-0.957068
28840;4.469807;-0.888438;8.713269;0.000271;0.001647;0.003016;-0.748779;0.239258;-0.320801;0.167680;-0.236421;0.005954;-0.957054
28841;4.444984;-0.855219;8.733553;-0.004742;0.000914;-0.000816;-0.756104;0.239014;-0.323242;0.167644;-0.236425;0.005961;-0.957060
28842;4.454963;-0.877980;8.740543;-0.002468;0.002989;0.003238;-0.752686;0.239502;-0.327148;0.167574;-0.236413;0.005962;-0.957075
28843;4.458576;-0.868006;8.706686;-0.002962;0.002373;0.004832;-0.757568;0.238037;-0.319580;0.167567;-0.236364;0.005961;-0.957088
28844;4.441576;-0.877604;8.733508;-0.000735;0.001771;0.001261;-0.746094;0.242432;-0.320068;0.167452;-0.236394;0.005947;-0.957101
28845;4.432687;-0.886996;8.717135;-0.001983;0.002261;0.000750;-0.738037;0.241455;-0.311768;0.167484;-0.236384;0.005952;-0.957098
28846;4.459736;-0.869758;8.732410;-0.000230;0.003732;0.000562;-0.752686;0.249023;-0.317383;0.167575;-0.236400;0.005947;-0.957078
28847;4.450642;-0.879055;8.716150;-0.001730;0.003241;0.000401;-0.743896;0.234375;-0.319092;0.167570;-0.236429;0.005995;-0.957071
28848;4.444074;-0.867872;8.700199;-0.001993;0.000916;-0.000144;-0.751465;0.242188;-0.315430;0.167557;-0.236424;0.005957;-0.957075
28849;4.446161;-0.868992;8.725510;-0.002235;0.001280;0.001100;-0.757812;0.239746;-0.324707;0.167519;-0.236477;0.005977;-0.957069
28850;4.449901;-0.880053;8.716428;-0.001983;0.002260;0.000751;-0.750732;0.242676;-0.320801;0.167423;-0.236464;0.005972;-0.957089
28851;4.449766;-0.880324;8.716469;-0.000998;-0.000553;0.000716;-0.748535;0.241943;-0.333496;0.167410;-0.236483;0.005969;-0.957086
28852;4.440885;-0.889720;8.700089;-0.002725;0.004710;-0.000459;-0.750244;0.241455;-0.323486;0.167444;-0.236353;0.005954;-0.957113
28853;4.444909;-0.870340;8.726013;-0.002728;0.002687;0.001117;-0.743652;0.246582;-0.315186;0.167435;-0.236326;0.005960;-0.957121
28854;4.444570;-0.849458;8.701344;-0.003231;0.002749;0.000240;-0.748291;0.241455;-0.325928;0.167500;-0.236348;0.006000;-0.957104
28855;4.444197;-0.871262;8.726284;-0.001230;0.001154;0.002855;-0.752441;0.248291;-0.319092;0.167533;-0.236306;0.005989;-0.957108
28856;4.454229;-0.872483;8.708463;-0.002728;0.002687;0.001118;-0.745361;0.243164;-0.324219;0.167539;-0.236326;0.006035;-0.957102
28857;4.464091;-0.895111;8.715516;-0.002225;0.002624;0.001995;-0.746094;0.241699;-0.323730;0.167598;-0.236279;0.006039;-0.957103
28858;4.445317;-0.873272;8.751995;-0.001487;0.002876;-0.000843;-0.752441;0.237549;-0.322021;0.167615;-0.236236;0.006028;-0.957111
28859;4.440348;-0.871971;8.701692;-0.000967;0.003478;0.003401;-0.751221;0.236816;-0.320801;0.167569;-0.236218;0.006014;-0.957124
28860;4.452625;-0.873811;8.709151;-0.001248;0.000489;-0.000511;-0.755615;0.242188;-0.318848;0.167496;-0.236230;0.005989;-0.957134
28861;4.442079;-0.873433;8.727145;-0.003223;0.002070;0.002711;-0.759033;0.242920;-0.317383;0.167437;-0.236264;0.006019;-0.957135
28862;4.464531;-0.876398;8.716725;-0.002717;0.004030;0.002013;-0.750732;0.242920;-0.326904;0.167340;-0.236304;0.006056;-0.957142
28863;4.428504;-0.872973;8.720208;-0.002225;0.002623;0.001995;-0.756592;0.243408;-0.318115;0.167352;-0.236254;0.006061;-0.957152
28864;4.434462;-0.863643;8.711597;-0.003223;0.002070;0.002711;-0.750244;0.249512;-0.314453;0.167286;-0.236297;0.006100;-0.957153
28865;4.453002;-0.855883;8.710319;-0.001220;0.002497;0.003751;-0.759521;0.242676;-0.320068;0.167319;-0.236345;0.006153;-0.957135
28866;4.440129;-0.876246;8.727856;-0.003989;-0.000191;0.001288;-0.753662;0.239990;-0.326904;0.167210;-0.236400;0.006187;-0.957140
28867;4.454356;-0.888314;8.700746;-0.002478;0.001643;0.002345;-0.751465;0.234375;-0.326416;0.167183;-0.236365;0.006181;-0.957154
28868;4.437557;-0.876456;8.702665;-0.001490;0.000853;0.000734;-0.744385;0.241943;-0.323486;0.167142;-0.236330;0.006133;-0.957170
28869;4.452309;-0.878968;8.735277;0.000000;0.000000;0.000000;-0.744629;0.240723;-0.321777;0.167211;-0.236306;0.006114;-0.957164
28870;4.448162;-0.868395;8.744522;-0.001740;0.001896;-0.000493;-0.747070;0.244141;-0.316895;0.167245;-0.236281;0.006100;-0.957164
28871;4.462148;-0.880102;8.717572;-0.001227;0.003177;0.001280;-0.748047;0.246826;-0.325684;0.167271;-0.236292;0.006115;-0.957157
28872;4.451351;-0.879690;8.735692;-0.001723;0.002560;0.002874;-0.749268;0.242920;-0.328613;0.167337;-0.236248;0.006133;-0.957156
28873;4.442372;-0.889266;8.719333;-0.003230;0.002749;0.000241;-0.757080;0.243408;-0.331055;0.167350;-0.236184;0.006137;-0.957169
28874;4.444122;-0.869174;8.720024;-0.002966;0.005072;0.000787;-0.748535;0.240479;-0.316895;0.167298;-0.236107;0.006151;-0.957197
28875;4.424791;-0.877963;8.721592;-0.001484;0.000173;0.003205;-0.752930;0.236572;-0.317627;0.167302;-0.236147;0.006153;-0.957187
28876;4.445701;-0.870915;8.745523;-0.002727;0.002686;0.001118;-0.753906;0.233398;-0.322754;0.167222;-0.236172;0.006153;-0.957195
28877;4.440940;-0.869749;8.695111;-0.002235;0.001279;0.001101;-0.746582;0.243652;-0.326904;0.167130;-0.236171;0.006124;-0.957211
28878;4.424046;-0.879115;8.721854;-0.000994;0.001470;-0.000860;-0.748291;0.240723;-0.323730;0.167171;-0.236121;0.006109;-0.957216
28879;4.455346;-0.872461;8.727880;-0.000994;0.001470;-0.000860;-0.749756;0.246582;-0.311035;0.167166;-0.236099;0.006091;-0.957223
28880;4.433963;-0.880118;8.704127;-0.001237;0.001833;0.000385;-0.749512;0.247559;-0.325195;0.167156;-0.236174;0.006127;-0.957206
28881;4.434399;-0.849702;8.739078;0.000745;-0.000426;-0.000367;-0.748291;0.237061;-0.327148;0.167188;-0.236161;0.006120;-0.957204
28882;4.442291;-0.871163;8.720759;-0.001982;0.002259;0.000752;-0.749756;0.242920;-0.318604;0.167181;-0.236106;0.006093;-0.957219
28883;4.436157;-0.881326;8.729364;-0.000521;-0.005327;0.001377;-0.749268;0.242676;-0.320312;0.167180;-0.236180;0.006085;-0.957201
28884;4.442773;-0.871712;8.720458;-0.001733;0.001216;0.001978;-0.753174;0.239014;-0.324951;0.167190;-0.236188;0.006093;-0.957197
28885;4.446653;-0.882665;8.711309;-0.001750;0.000553;-0.001388;-0.743896;0.246582;-0.323975;0.167124;-0.236178;0.006076;-0.957211
28886;4.442576;-0.872130;8.720517;-0.000745;0.000426;0.000367;-0.750488;0.233887;-0.324219;0.167209;-0.236152;0.006073;-0.957202
28887;4.433942;-0.881358;8.704012;-0.000745;0.000426;0.000367;-0.756592;0.249756;-0.319092;0.167150;-0.236136;0.006031;-0.957217
28888;4.461502;-0.864151;8.719080;-0.001754;-0.001471;0.000187;-0.744141;0.248047;-0.323730;0.167114;-0.236200;0.006070;-0.957207
28889;4.425885;-0.860242;8.722384;0.001262;0.002877;-0.000169;-0.752930;0.242676;-0.318604;0.167203;-0.236156;0.006060;-0.957203
28890;4.465170;-0.874667;8.710082;0.000998;0.000554;-0.000716;-0.754639;0.246582;-0.327637;0.167160;-0.236188;0.006046;-0.957202
28891;4.431675;-0.871605;8.738695;-0.001982;0.002259;0.000752;-0.754395;0.245361;-0.326660;0.167145;-0.236155;0.006065;-0.957213
28892;4.458250;-0.884887;8.719082;-0.000984;0.002813;0.000036;-0.750732;0.237061;-0.319824;0.167120;-0.236122;0.006071;-0.957226
28893;4.441318;-0.872806;8.721090;-0.001739;0.001896;-0.000493;-0.750488;0.234863;-0.315674;0.167066;-0.236129;0.006056;-0.957233
28894;4.434879;-0.861561;8.705097;-0.001490;0.000852;0.000734;-0.746338;0.248291;-0.318359;0.167004;-0.236172;0.006037;-0.957234
28895;4.453596;-0.874842;8.728535;-0.001247;0.000490;-0.000511;-0.747803;0.241211;-0.328125;0.167051;-0.236194;0.006056;-0.957220
28896;4.432352;-0.882388;8.704717;0.000253;0.000980;-0.000349;-0.750244;0.246338;-0.313721;0.167070;-0.236143;0.006023;-0.957229
28897;4.449314;-0.864387;8.737840;-0.003240;0.001405;-0.000655;-0.742188;0.233398;-0.325684;0.167058;-0.236203;0.006063;-0.957216
28898;4.446997;-0.863788;8.712606;-0.000502;0.000063;-0.000878;-0.749023;0.241211;-0.322998;0.167073;-0.236157;0.006002;-0.957225
28899;4.421666;-0.882146;8.722755;-0.000988;0.000789;0.001612;-0.754395;0.242188;-0.318115;0.167083;-0.236148;0.005993;-0.957226
28900;4.450982;-0.874865;8.703390;-0.001754;-0.001471;0.000186;-0.756592;0.244385;-0.322266;0.167028;-0.236207;0.006000;-0.957221
28901;4.440628;-0.874431;8.721278;-0.002235;0.001278;0.001101;-0.753418;0.245117;-0.321533;0.166979;-0.236223;0.006022;-0.957225
28902;4.436447;-0.864099;8.730521;-0.001992;0.000916;-0.000144;-0.747559;0.238281;-0.321777;0.166951;-0.236238;0.006040;-0.957226
28903;4.459182;-0.866700;8.720013;-0.001237;0.001832;0.000385;-0.749268;0.249512;-0.318115;0.166949;-0.236223;0.006020;-0.957231
28904;4.440064;-0.853896;8.696735;-0.001982;0.002259;0.000752;-0.751465;0.244385;-0.315918;0.166984;-0.236242;0.006056;-0.957220
28905;4.435605;-0.865138;8.730846;-0.004729;0.002257;0.000079;-0.754395;0.244629;-0.317383;0.166959;-0.236282;0.006100;-0.957214
28906;4.424417;-0.895424;8.713938;-0.003482;0.001768;0.000590;-0.747070;0.247803;-0.315674;0.166917;-0.236322;0.006136;-0.957211
28907;4.438980;-0.876769;8.721882;0.000523;0.002622;0.002670;-0.753906;0.240723;-0.319092;0.166978;-0.236342;0.006150;-0.957195
28908;4.442621;-0.887683;8.712856;-0.002986;0.002385;-0.001003;-0.750000;0.237793;-0.312012;0.166914;-0.236361;0.006161;-0.957202
28909;4.434215;-0.866586;8.731408;-0.000481;0.002749;0.000915;-0.757324;0.247070;-0.322998;0.166881;-0.236408;0.006151;-0.957196
28910;4.429719;-0.856190;8.740818;-0.002474;0.003664;0.000771;-0.750000;0.244629;-0.320557;0.166833;-0.236401;0.006187;-0.957206
28911;4.456199;-0.869664;8.721243;-0.002225;0.002621;0.001997;-0.752686;0.245605;-0.328125;0.166847;-0.236398;0.006207;-0.957204
28912;4.440850;-0.889191;8.713605;-0.002970;0.003047;0.002364;-0.746094;0.243164;-0.328613;0.166852;-0.236351;0.006231;-0.957215
28913;4.442567;-0.868993;8.714349;-0.001222;0.005198;-0.000292;-0.751953;0.247314;-0.328369;0.166892;-0.236263;0.006221;-0.957229
28914;4.444120;-0.870095;8.739916;-0.000968;0.003473;0.003405;-0.750488;0.242188;-0.329102;0.166922;-0.236208;0.006237;-0.957238
28915;4.443501;-0.870632;8.740178;-0.003462;0.004452;0.002383;-0.757080;0.233887;-0.315918;0.166932;-0.236139;0.006250;-0.957253
28916;4.415922;-0.858142;8.760204;-0.001470;0.003537;0.002527;-0.759033;0.240479;-0.319336;0.166841;-0.236172;0.006239;-0.957261
28917;4.432622;-0.871040;8.758237;-0.005013;-0.005456;0.001782;-0.746094;0.234619;-0.328125;0.166748;-0.236269;0.006266;-0.957253
28918;4.412130;-0.892107;8.792099;-0.025133;-0.029244;-0.007026;-0.746826;0.240479;-0.325195;0.166664;-0.236489;0.006351;-0.957212
28919;4.402593;-0.853824;8.825220;-0.045013;-0.057463;-0.013916;-0.748291;0.237549;-0.330078;0.166493;-0.236984;0.006570;-0.957118
28920;4.341443;-0.842280;8.833486;-0.066074;-0.128036;-0.018659;-0.753174;0.235596;-0.319092;0.166233;-0.238035;0.006833;-0.956901
28921;4.518173;-0.782803;8.716386;-0.074427;-0.169977;-0.013332;-0.743896;0.242676;-0.308350;0.165937;-0.239499;0.007127;-0.956585
28922;4.552409;-0.859427;8.759083;-0.095498;-0.155141;-0.011471;-0.753662;0.249512;-0.315674;0.165724;-0.240905;0.007634;-0.956265
28923;4.593618;-0.789573;8.909402;-0.160834;-0.130544;-0.030059;-0.758789;0.242432;-0.311279;0.165193;-0.242169;0.008679;-0.956028
28924;4.727873;-0.796630;8.851265;-0.225992;-0.159683;-0.010951;-0.748535;0.245117;-0.306396;0.164610;-0.243773;0.010224;-0.955706
28925;4.937520;-0.817286;8.689033;-0.244975;-0.170135;0.047705;-0.751221;0.244629;-0.298584;0.164559;-0.245466;0.012017;-0.955260
28926;4.817763;-0.982784;8.556155;-0.221828;-0.067103;0.092120;-0.756836;0.254150;-0.310059;0.164862;-0.246335;0.013859;-0.954959
28927;4.790513;-0.723316;8.706427;-0.234330;0.030844;0.090580;-0.751465;0.251465;-0.308105;0.165119;-0.246374;0.015944;-0.954872
28928;4.670355;-1.084412;8.674758;-0.242078;0.067342;0.086351;-0.756104;0.249023;-0.299561;0.165334;-0.246129;0.018110;-0.954860
28929;4.668407;-1.276766;8.555593;-0.228170;0.103734;0.079327;-0.756348;0.253418;-0.304688;0.165439;-0.245637;0.020206;-0.954926
28930;4.487748;-1.363112;8.504685;-0.189993;0.120483;0.071455;-0.756836;0.264404;-0.303467;0.165563;-0.244933;0.022007;-0.955046
28931;4.415805;-1.397400;8.514115;-0.165266;0.105475;0.060178;-0.743652;0.262695;-0.302734;0.165682;-0.244335;0.023598;-0.955140
28932;4.391551;-1.208218;8.593431;-0.150702;0.082311;0.061308;-0.745605;0.252930;-0.305664;0.165934;-0.243880;0.025018;-0.955177
28933;4.512684;-1.229853;8.600913;-0.150704;0.082291;0.055589;-0.756104;0.266846;-0.300537;0.166053;-0.243410;0.026400;-0.955239
28934;4.223669;-1.522339;8.447161;-0.125142;0.066330;0.033279;-0.747070;0.266846;-0.302979;0.166028;-0.243101;0.027562;-0.955289
28935;4.145982;-1.507611;8.431207;-0.083724;0.025566;0.004238;-0.747314;0.264893;-0.306396;0.165928;-0.243032;0.028264;-0.955303
28936;4.116142;-1.470203;8.435991;-0.038254;-0.029306;-0.028433;-0.750488;0.263672;-0.303955;0.165657;-0.243323;0.028453;-0.955271
28937;4.135318;-1.470078;8.413634;-0.001934;-0.082887;-0.057999;-0.745117;0.269287;-0.309814;0.165207;-0.244014;0.028223;-0.955179
28938;4.401911;-1.316067;8.547497;0.026206;-0.137090;-0.058940;-0.754150;0.263672;-0.301514;0.164905;-0.245046;0.027691;-0.954983
28939;4.222855;-1.260575;8.517879;0.032336;-0.173459;-0.069117;-0.756104;0.251709;-0.298340;0.164451;-0.246417;0.027047;-0.954727
28940;4.344738;-1.310031;8.473669;0.058293;-0.217467;-0.083200;-0.751953;0.259033;-0.293945;0.163874;-0.248106;0.026088;-0.954415
28941;4.079123;-1.483855;8.432288;0.104871;-0.279101;-0.115096;-0.752686;0.251709;-0.294189;0.163248;-0.250232;0.024622;-0.954006
28942;3.801714;-1.813149;8.449788;0.207672;-0.358170;-0.181221;-0.754395;0.254639;-0.284668;0.162300;-0.252832;0.022078;-0.953545
28943;4.774435;-1.040900;9.363566;0.313076;-0.449191;-0.236851;-0.754395;0.250977;-0.287109;0.161188;-0.256054;0.018476;-0.952950
28944;3.180653;-0.239782;10.547588;0.143256;-0.551627;-0.236142;-0.767578;0.242432;-0.287598;0.159765;-0.260263;0.016072;-0.952092
28945;3.350305;-0.612272;11.954990;-0.130143;-1.136519;-0.256093;-0.769043;0.240234;-0.274902;0.157551;-0.269435;0.015013;-0.949925
28946;2.518852;-1.822830;12.876061;-0.685058;-1.888891;-0.389584;-0.778320;0.236328;-0.242676;0.153139;-0.285230;0.017047;-0.945992
28947;3.165120;-2.951506;12.151047;-0.749071;-2.779424;-0.573157;-0.798828;0.231445;-0.192139;0.147167;-0.308049;0.018017;-0.939746
28948;5.297202;-1.765179;10.996434;-0.320251;-3.419378;-0.742844;-0.805908;0.229980;-0.146729;0.140877;-0.335235;0.014441;-0.931430
28949;6.329308;-5.102375;10.445688;-0.247133;-3.474708;-0.999545;-0.828125;0.203369;-0.106201;0.132797;-0.362485;0.009490;-0.922431
28950;7.715300;-6.604563;10.986028;0.176654;-2.923740;-1.240559;-0.839355;0.197021;-0.062256;0.123771;-0.384705;0.001202;-0.914703
28951;3.919985;-6.826203;12.656729;0.982539;-1.821958;-1.141559;-0.845947;0.185303;-0.043457;0.118080;-0.397526;-0.011746;-0.909886
28952;1.420333;-4.594715;13.013307;0.420105;-0.735715;-0.547747;-0.843018;0.171631;-0.039795;0.115151;-0.402603;-0.017377;-0.907937
28953;-3.320922;-6.312466;10.128544;0.188488;-0.124203;-0.204822;-0.847168;0.172852;-0.038330;0.114110;-0.403252;-0.019509;-0.907737
28954;-3.024170;-3.784657;10.636447;-0.191160;0.452922;-0.102143;-0.843994;0.172607;-0.046875;0.112666;-0.399906;-0.017847;-0.909430
28955;-3.401332;-3.842316;10.143847;-0.652790;1.094767;-0.101994;-0.856201;0.173584;-0.060303;0.109814;-0.392070;-0.012085;-0.913278
28956;-2.417466;-2.998163;10.068423;-0.783253;1.587293;-0.162835;-0.853027;0.170410;-0.092529;0.105999;-0.380533;-0.005019;-0.918659
28957;-0.518602;-2.052499;10.555970;-0.911702;2.025959;-0.186856;-0.849365;0.167969;-0.111084;0.101618;-0.365526;0.003339;-0.925231
28958;1.700724;-1.482129;10.997239;-1.114556;2.459636;-0.134424;-0.851807;0.180420;-0.142822;0.096915;-0.347248;0.013806;-0.932650
28959;2.953175;-1.646974;10.835402;-1.223883;2.796100;0.019459;-0.845947;0.179199;-0.182861;0.093061;-0.326239;0.025802;-0.940341
28960;4.459305;-1.801596;10.799936;-1.215214;2.959523;0.213323;-0.842285;0.182373;-0.225830;0.090587;-0.303651;0.038388;-0.947690
28961;5.309898;-2.160680;10.531503;-1.163096;3.037705;0.445254;-0.825928;0.197021;-0.267578;0.089947;-0.280122;0.051180;-0.954370
28962;5.766673;-2.296198;10.218630;-1.051747;2.958227;0.680171;-0.814453;0.212158;-0.306641;0.091473;-0.256874;0.063502;-0.960008
28963;6.123975;-2.194080;10.018777;-0.954402;2.745374;0.891221;-0.790771;0.241211;-0.347900;0.094933;-0.234983;0.075284;-0.964418
28964;7.420589;-1.705430;10.720016;-0.911520;2.540419;1.036288;-0.773193;0.253174;-0.375000;0.099713;-0.214469;0.086789;-0.967744
28965;8.573218;-1.084687;10.925149;-1.016212;2.637655;1.280408;-0.750000;0.282227;-0.401855;0.106136;-0.192946;0.099589;-0.970355
28966;7.801453;-1.202701;9.720326;-0.937539;2.663607;1.483887;-0.727539;0.311523;-0.442139;0.114238;-0.170841;0.112018;-0.972222
28967;7.717396;-0.864137;8.808063;-0.649120;2.493029;1.539767;-0.690186;0.331787;-0.470215;0.123290;-0.149676;0.121938;-0.973410
28968;8.288923;-0.746761;7.931433;-0.389826;2.296057;1.459118;-0.652344;0.363037;-0.487061;0.132144;-0.129841;0.129366;-0.974137
28969;8.152421;-0.448007;6.506129;-0.221255;2.027070;1.263078;-0.639160;0.382812;-0.523193;0.139824;-0.112158;0.134842;-0.974519
28970;8.117381;0.240008;5.094607;-0.215865;1.573616;0.974232;-0.613281;0.392822;-0.531006;0.145636;-0.098446;0.139418;-0.974505
28971;8.459438;0.350303;4.008012;-0.187253;1.053671;0.664542;-0.593994;0.402100;-0.536377;0.149545;-0.089272;0.142839;-0.974302
28972;9.228963;0.840285;3.416640;-0.053593;0.582750;0.407203;-0.590088;0.406250;-0.553467;0.152024;-0.084063;0.144373;-0.974155
28973;9.622354;0.643822;2.809431;0.096018;0.215807;0.152682;-0.580078;0.419434;-0.555908;0.152993;-0.081959;0.144034;-0.974233
28974;9.540131;0.130568;2.397842;0.271847;-0.222805;-0.186707;-0.578613;0.414551;-0.552002;0.151863;-0.083609;0.141463;-0.974646
28975;10.229480;-0.307971;2.698388;0.423424;-0.687300;-0.486064;-0.591797;0.404053;-0.556396;0.148961;-0.089201;0.136850;-0.975257
28976;10.710432;-1.049892;3.260453;0.491379;-1.100531;-0.618207;-0.609863;0.392578;-0.545654;0.145503;-0.098221;0.131052;-0.975708
28977;10.966708;-1.690340;4.302708;0.541934;-1.423118;-0.611063;-0.624512;0.386230;-0.531494;0.142483;-0.109790;0.124429;-0.975788
28978;-0.043357;-4.637026;10.766453;0.729402;-1.881684;-0.568649;-0.644043;0.373535;-0.517334;0.140428;-0.124804;0.115738;-0.975350
28979;-18.997970;-8.072597;23.060574;2.880130;-2.218294;-0.764525;-0.675537;0.342285;-0.515625;0.139249;-0.140144;0.088907;-0.976251
28980;11.782412;9.196621;8.370630;1.711115;-3.610697;-0.741858;-0.713867;0.319092;-0.490723;0.137750;-0.167977;0.069930;-0.973611
28981;15.613001;3.807311;15.880606;0.444748;-2.127212;-0.152046;-0.728760;0.320068;-0.472168;0.138333;-0.184779;0.063663;-0.970911
28982;5.807340;0.314630;10.704926;0.012852;-1.633206;-0.013718;-0.744629;0.321777;-0.445312;0.139096;-0.197972;0.061628;-0.968329
28983;5.684835;0.496332;9.631267;-0.198116;-1.399934;0.250842;-0.758545;0.321777;-0.435303;0.141509;-0.209362;0.061983;-0.965557
28984;5.177710;-0.497806;9.556082;-0.366555;-1.118443;-0.035151;-0.754150;0.329834;-0.419434;0.141473;-0.218830;0.063438;-0.963366
28985;5.975250;-4.421808;9.007149;-0.252630;-0.947249;-0.094560;-0.769531;0.329834;-0.405029;0.140766;-0.226786;0.064130;-0.961582
28986;6.369633;-3.253067;8.958231;0.101537;-0.620888;0.038661;-0.771729;0.326416;-0.394287;0.141953;-0.231651;0.062536;-0.960352
28987;4.655251;-1.369818;8.857068;0.133997;-0.441007;0.016930;-0.763184;0.333984;-0.391113;0.142586;-0.235023;0.060937;-0.959542
28988;5.012846;-1.969987;8.837472;0.119575;-0.370731;0.006108;-0.767822;0.326904;-0.381348;0.143068;-0.237854;0.059514;-0.958861
28989;4.920470;-1.156143;8.971556;0.060957;-0.282640;0.001089;-0.772461;0.322266;-0.379883;0.143349;-0.240051;0.058653;-0.958325
28990;4.522665;-1.821793;8.645834;0.039926;-0.240890;0.007095;-0.774658;0.325439;-0.390869;0.143616;-0.241936;0.058020;-0.957849
28991;4.529918;-1.957549;8.543334;0.057715;-0.230748;-0.027147;-0.775879;0.319580;-0.365234;0.143640;-0.243734;0.057187;-0.957440
28992;4.454481;-1.904823;8.552881;0.078565;-0.214218;-0.079350;-0.789551;0.319580;-0.381592;0.143281;-0.245400;0.056103;-0.957132
28993;4.827311;-1.594488;8.717652;0.097532;-0.215596;-0.109267;-0.789062;0.321777;-0.372070;0.143011;-0.247083;0.054727;-0.956819
28994;4.588969;-1.761536;8.585861;0.088621;-0.179381;-0.129834;-0.784912;0.322021;-0.364990;0.142575;-0.248497;0.053412;-0.956592
28995;4.565302;-1.781403;8.472470;0.103964;-0.150398;-0.175015;-0.783936;0.310303;-0.374756;0.141474;-0.249662;0.052002;-0.956530
28996;4.523340;-1.858769;8.372511;0.129304;-0.129650;-0.207863;-0.783203;0.312988;-0.372070;0.140154;-0.250645;0.050347;-0.956556
28997;4.704191;-1.691548;8.392999;0.174451;-0.114689;-0.216351;-0.792725;0.316650;-0.362793;0.138853;-0.251457;0.048332;-0.956636
28998;4.689915;-1.568360;8.446258;0.205609;-0.111064;-0.202617;-0.792969;0.302002;-0.367432;0.137724;-0.252197;0.046101;-0.956715
28999;5.029461;-1.180158;8.748324;0.173323;-0.100696;-0.143192;-0.793701;0.300049;-0.372559;0.136996;-0.252867;0.044264;-0.956729
29000;4.812169;-1.297475;8.641220;0.104750;-0.088596;-0.111188;-0.795654;0.295898;-0.362305;0.136375;-0.253507;0.043054;-0.956704
29001;4.806697;-1.228739;8.686660;0.061426;-0.092589;-0.098202;-0.790527;0.299805;-0.365967;0.135768;-0.254222;0.042212;-0.956638
29002;4.705178;-1.291657;8.599134;0.027451;-0.104517;-0.081622;-0.804443;0.299072;-0.365234;0.135225;-0.255065;0.041661;-0.956515
29003;4.805545;-1.194721;8.582319;0.008186;-0.118682;-0.062307;-0.798096;0.296387;-0.363281;0.135129;-0.256049;0.041197;-0.956285
29004;4.761965;-1.327137;8.530193;-0.002307;-0.125309;-0.045172;-0.805908;0.293701;-0.356201;0.134821;-0.257077;0.040936;-0.956064
29005;4.783237;-1.381258;8.470209;0.000823;-0.131118;-0.043754;-0.801514;0.290771;-0.363770;0.134533;-0.258148;0.040646;-0.955829
29006;4.796309;-1.415277;8.430649;0.003291;-0.125971;-0.054290;-0.791748;0.297363;-0.363037;0.134164;-0.259177;0.040319;-0.955616
29007;4.802643;-1.380923;8.451611;0.007783;-0.119751;-0.060505;-0.801270;0.300049;-0.362061;0.133753;-0.260154;0.039951;-0.955423
29008;4.796833;-1.428670;8.379219;0.015142;-0.117591;-0.063190;-0.802246;0.295166;-0.354980;0.133335;-0.261106;0.039520;-0.955240
29009;4.751543;-1.402683;8.432523;0.017347;-0.112164;-0.059689;-0.797607;0.295654;-0.354492;0.132949;-0.262010;0.039085;-0.955064
29010;4.705653;-1.665168;8.256099;0.023830;-0.109426;-0.067758;-0.806152;0.289307;-0.355469;0.132510;-0.262888;0.038585;-0.954904
29011;4.745419;-1.599291;8.312380;0.046913;-0.085117;-0.098502;-0.805664;0.289307;-0.356445;0.131869;-0.263556;0.037861;-0.954838
29012;4.765847;-1.398543;8.431423;0.051869;-0.034774;-0.123554;-0.804443;0.290527;-0.348633;0.131023;-0.263825;0.037099;-0.954910
29013;4.447565;-1.383012;9.109654;-0.022904;-0.085040;-0.122268;-0.808350;0.287598;-0.356445;0.130038;-0.264575;0.036880;-0.954845
29014;3.837733;-1.528001;9.978190;-0.132945;-0.303879;-0.203355;-0.807373;0.283936;-0.346680;0.128231;-0.267209;0.037121;-0.954347
29015;3.702101;-0.252544;10.639131;-0.289531;-0.803552;-0.254433;-0.812500;0.280273;-0.330322;0.125817;-0.273988;0.037960;-0.952712
29016;4.235299;0.263774;10.841591;-0.647629;-1.326754;-0.153536;-0.825195;0.278076;-0.312256;0.123541;-0.285235;0.041316;-0.949564
29017;3.717660;-0.075979;11.539304;-0.860070;-1.935217;0.011019;-0.842041;0.288818;-0.275879;0.122244;-0.301391;0.046104;-0.944507
29018;2.810326;0.297715;12.175094;-0.892232;-2.834413;0.220746;-0.849854;0.294678;-0.237549;0.123120;-0.324452;0.050617;-0.936488
29019;1.744124;-0.488148;12.606183;-1.114971;-3.985107;0.271709;-0.864502;0.298584;-0.182373;0.124151;-0.356402;0.055757;-0.924368
29020;1.216881;-1.659854;13.412821;-1.281234;-5.429771;0.233514;-0.864258;0.312744;-0.092773;0.124814;-0.399060;0.060463;-0.906376
29021;1.072813;-5.743953;12.431482;-1.371440;-7.073542;-0.123968;-0.879639;0.310059;0.020996;0.122666;-0.453217;0.062887;-0.880678
29022;6.038406;-6.272669;11.197458;-1.209276;-8.372266;-0.811345;-0.871826;0.289307;0.140625;0.116538;-0.515141;0.059754;-0.847041
29023;19.840879;-6.710313;11.962214;-1.090662;-8.155567;-1.496264;-0.851562;0.272949;0.255859;0.105332;-0.573212;0.052762;-0.810894
29024;21.069404;-9.641544;14.558907;-0.880405;-7.243162;-2.316799;-0.822998;0.243164;0.347412;0.088769;-0.622746;0.040907;-0.776295
29025;16.563803;-2.355371;15.567646;-1.653773;-6.348362;-2.121554;-0.777832;0.198242;0.436035;0.068478;-0.664685;0.035842;-0.743115
29026;6.549108;-3.741239;17.177813;-3.555020;-4.711529;-1.392668;-0.750244;0.146484;0.506104;0.041481;-0.695414;0.047412;-0.715843
29027;9.117674;-13.484396;14.945336;-2.196374;-2.169923;-2.294563;-0.735352;0.104980;0.525391;0.015893;-0.709627;0.046464;-0.702864
29028;2.662065;-9.593151;14.941963;0.436544;0.802846;-2.588890;-0.743652;0.071533;0.506836;0.002976;-0.705639;0.028763;-0.707982
29029;-3.945054;-2.810624;12.239112;0.677849;1.575491;-2.406564;-0.747803;0.047119;0.476807;-0.007643;-0.696638;0.010750;-0.717301
29030;-3.470682;-3.499667;9.480221;0.105624;1.866181;-2.064682;-0.761963;0.032227;0.432373;-0.019570;-0.685431;-0.001874;-0.727872
29031;-2.011552;-5.614688;8.123602;0.168353;2.364179;-1.582341;-0.773682;0.003906;0.395996;-0.028204;-0.670841;-0.012190;-0.740965
29032;-0.613094;-4.874195;8.019296;0.509502;3.003085;-0.902149;-0.786133;-0.003174;0.369141;-0.030661;-0.652028;-0.020934;-0.757285
29033;0.207069;-3.649766;7.910906;0.411786;3.641880;-0.121439;-0.797852;-0.000732;0.295654;-0.028602;-0.628758;-0.024951;-0.776674
29034;0.883903;-3.667818;7.516041;0.108716;4.109427;0.551467;-0.808105;0.010986;0.240479;-0.023664;-0.601855;-0.023558;-0.797907
29035;2.492082;-4.547032;7.364416;0.037335;4.411836;1.064939;-0.800781;0.025879;0.176270;-0.015598;-0.572229;-0.019136;-0.819723
29036;4.667761;-4.705168;7.858450;0.135223;4.747390;1.479123;-0.793701;0.044434;0.108398;-0.004180;-0.539478;-0.013414;-0.841882
29037;6.076541;-4.620335;8.517682;0.174141;5.112185;1.831213;-0.804443;0.071777;0.029541;0.009908;-0.503182;-0.006364;-0.864100
29038;6.974424;-4.540761;9.366568;0.112270;5.358078;2.091059;-0.784424;0.094971;-0.027832;0.025572;-0.464028;0.002257;-0.885448
29039;8.366132;-4.072310;10.629604;-0.090395;5.520861;2.315226;-0.747070;0.117920;-0.094482;0.042015;-0.422587;0.013268;-0.905251
29040;9.971453;-3.992108;12.083926;-0.393186;5.668248;2.461460;-0.729736;0.164551;-0.159180;0.058345;-0.379019;0.027088;-0.923150
29041;12.070506;-4.720732;13.408945;-0.622967;5.835790;2.524347;-0.684082;0.188477;-0.207031;0.074210;-0.333203;0.042867;-0.938952
29042;14.100182;-5.067286;14.614736;-0.591302;5.988971;2.521402;-0.638428;0.209717;-0.263184;0.089847;-0.285190;0.058347;-0.952465
29043;17.239282;-5.264135;14.520485;-0.664780;6.055518;2.445027;-0.591064;0.233887;-0.286865;0.104382;-0.235879;0.074084;-0.963316
29044;19.646694;-7.519329;12.283133;-0.664353;5.918793;2.163011;-0.554199;0.257080;-0.334961;0.116421;-0.187148;0.088908;-0.971348
29045;21.311972;-6.340224;9.272078;-0.538796;5.332883;1.973462;-0.515869;0.280029;-0.357666;0.127247;-0.142696;0.101607;-0.976280
29046;23.469912;-3.566407;5.424920;-0.935695;4.361108;2.100693;-0.487793;0.296631;-0.364258;0.139199;-0.106177;0.116433;-0.977647
29047;23.890075;-1.081171;0.811256;-1.252131;3.198273;2.494327;-0.443359;0.320801;-0.385986;0.155008;-0.078963;0.132639;-0.975779
29048;24.289246;2.081995;-3.604730;-0.989228;1.879118;2.972198;-0.437744;0.348389;-0.391846;0.176181;-0.061529;0.145146;-0.971652
29049;24.762143;-0.271285;-8.496387;0.218898;0.879854;2.177544;-0.421631;0.357910;-0.401123;0.192661;-0.051349;0.145874;-0.969002
29050;23.609797;5.679408;-6.487467;0.830479;-0.170555;0.659310;-0.413086;0.359375;-0.398682;0.198396;-0.050524;0.139277;-0.968859
29051;21.164746;3.075104;-3.136428;0.221511;-1.122029;-0.326747;-0.425049;0.343750;-0.386475;0.197037;-0.059555;0.135568;-0.969150
29052;12.951008;-9.514805;0.098958;1.832097;-2.177169;-0.730124;-0.449951;0.328613;-0.380615;0.194375;-0.074920;0.116852;-0.971057
29053;-14.531272;21.081132;21.983800;3.029716;-4.577285;0.534832;-0.468018;0.313721;-0.343506;0.204761;-0.106435;0.085210;-0.969270
29054;9.228846;-5.530005;5.298869;0.314616;-6.071826;1.689229;-0.499512;0.328125;-0.288818;0.222668;-0.153562;0.073718;-0.959898
29055;18.470915;17.557359;20.685190;0.522047;-5.027534;-1.145424;-0.526123;0.313721;-0.247070;0.217019;-0.193352;0.058708;-0.955024
29056;14.441205;-7.270542;11.152086;-0.349478;-3.702682;-1.623766;-0.553711;0.295898;-0.208008;0.205243;-0.224141;0.052104;-0.951273
29057;17.740346;-9.276142;10.649352;1.265565;-2.482946;-0.528263;-0.566162;0.281006;-0.194580;0.204458;-0.241840;0.036785;-0.947817
29058;8.653141;4.244976;10.982103;0.652056;-1.507882;-0.748585;-0.569336;0.285400;-0.186279;0.200313;-0.252861;0.027518;-0.946139
29059;6.614609;-3.373199;8.384681;0.538726;-0.859436;-0.495926;-0.577637;0.273926;-0.180420;0.197753;-0.258863;0.020738;-0.945227
29060;6.923891;-0.416283;9.141588;0.413153;-0.478951;-0.541199;-0.577393;0.278076;-0.176270;0.194483;-0.262065;0.015478;-0.945124
29061;5.417046;-1.253695;8.490060;0.364402;-0.285051;-0.395360;-0.587891;0.259766;-0.176270;0.192225;-0.263789;0.011232;-0.945166
29062;6.005712;-0.496867;8.675707;0.300357;-0.112438;-0.267568;-0.587402;0.257324;-0.173584;0.190812;-0.264239;0.008048;-0.945359
29063;5.595974;-0.064731;8.817107;0.208413;-0.043376;-0.130201;-0.583496;0.255859;-0.174072;0.190272;-0.264278;0.006000;-0.945472
29064;5.241336;-0.371978;8.757075;0.110490;-0.037804;-0.030641;-0.585938;0.242920;-0.170654;0.190302;-0.264423;0.004951;-0.945432
29065;5.127683;-0.738026;8.633210;0.051662;-0.049196;0.013527;-0.578125;0.251953;-0.178467;0.190550;-0.264749;0.004444;-0.945293
29066;5.136426;-1.090848;8.404622;0.027113;-0.055501;0.021585;-0.580566;0.257568;-0.171387;0.190807;-0.265161;0.004139;-0.945127
29067;5.173568;-1.281086;8.271425;0.035887;-0.021349;-0.013392;-0.579346;0.242432;-0.168213;0.190805;-0.265292;0.003744;-0.945093
29068;5.149103;-1.341108;8.232035;0.055183;0.031954;-0.058293;-0.583740;0.266602;-0.167480;0.190488;-0.264972;0.003185;-0.945248
29069;5.202920;-1.116299;8.286158;0.082746;0.095288;-0.058641;-0.582764;0.250000;-0.169678;0.190226;-0.264109;0.002510;-0.945544
29070;5.092761;-0.708320;8.450950;0.070149;0.149333;-0.022909;-0.580566;0.255615;-0.179932;0.190216;-0.262838;0.002101;-0.945901
29071;4.970023;-0.684057;8.574066;0.022372;0.139856;0.010971;-0.583252;0.245850;-0.177979;0.190367;-0.261716;0.002128;-0.946182
29072;4.928627;-0.807254;8.491234;-0.011184;0.118331;0.028195;-0.587891;0.251221;-0.181396;0.190580;-0.260816;0.002424;-0.946387
29073;4.905056;-0.842551;8.440335;-0.029342;0.095616;0.025725;-0.581787;0.250488;-0.182617;0.190734;-0.260123;0.002823;-0.946546
29074;4.873928;-0.887561;8.439734;-0.034198;0.061609;0.019231;-0.580078;0.252930;-0.186523;0.190826;-0.259706;0.003193;-0.946640
29075;4.834188;-0.815071;8.501078;-0.040255;0.029540;0.013082;-0.577881;0.256104;-0.181885;0.190856;-0.259551;0.003548;-0.946676
29076;4.872468;-0.745891;8.514289;-0.059582;-0.014630;0.014590;-0.587402;0.263184;-0.174072;0.190857;-0.259774;0.003989;-0.946613
29077;4.897117;-0.938177;8.409276;-0.073035;-0.034209;0.009467;-0.576416;0.254150;-0.179932;0.190788;-0.260173;0.004494;-0.946515
29078;4.826210;-1.102278;8.471632;-0.056547;-0.053070;-0.016805;-0.582520;0.250000;-0.180664;0.190547;-0.260694;0.004784;-0.946418
29079;4.670166;-1.351706;8.516666;-0.043780;-0.103632;-0.053329;-0.573486;0.254639;-0.175537;0.190047;-0.261595;0.004814;-0.946270
29080;4.626446;-1.087082;8.754181;-0.001310;-0.168391;-0.101656;-0.588623;0.247803;-0.175537;0.189259;-0.262940;0.004304;-0.946058
29081;4.638342;-0.898133;8.745071;-0.021402;-0.296229;-0.111853;-0.579102;0.250488;-0.171875;0.188349;-0.265323;0.003729;-0.945576
29082;4.745276;-0.077700;8.878787;-0.053959;-0.391489;-0.053503;-0.592041;0.252441;-0.165283;0.187827;-0.268503;0.003390;-0.944783
29083;4.208765;0.020453;9.847119;-0.195134;-0.661883;0.072984;-0.585449;0.248291;-0.158691;0.187988;-0.274023;0.004022;-0.943163
29084;3.653889;-0.888604;10.425352;-0.286149;-1.138078;0.081246;-0.588867;0.252686;-0.149170;0.188010;-0.283409;0.004641;-0.940378
29085;3.532121;-0.864706;10.879163;-0.426351;-1.712769;0.007050;-0.602051;0.258301;-0.122314;0.187110;-0.297474;0.005284;-0.936200
29086;3.502497;0.137425;11.301622;-0.646243;-2.363206;0.013233;-0.604004;0.255127;-0.105957;0.185680;-0.316861;0.006643;-0.930096
29087;2.740168;0.669399;12.227260;-0.908046;-3.231234;0.111620;-0.612549;0.266357;-0.068359;0.184256;-0.343180;0.008943;-0.920976
29088;1.351914;-0.676084;12.707250;-1.201294;-4.524184;0.190366;-0.622070;0.265869;-0.005859;0.182479;-0.379464;0.011721;-0.906957
29089;0.908773;-4.233990;13.998251;-1.177565;-6.390258;-0.043089;-0.609863;0.259521;0.065918;0.178785;-0.428973;0.010721;-0.885383
29090;2.163576;-7.998189;12.439784;-0.689721;-8.114142;-0.884464;-0.609131;0.253662;0.147461;0.170098;-0.488895;0.000522;-0.855598
29091;11.928500;-4.300378;11.496577;-0.858834;-8.966995;-1.586362;-0.583496;0.240723;0.240234;0.154829;-0.552560;-0.012520;-0.818870
29092;20.028819;-3.938141;13.026060;-1.312662;-8.446695;-1.979153;-0.558594;0.218994;0.338623;0.133982;-0.610146;-0.023529;-0.780524
29093;22.348459;-6.309936;14.313983;-1.936006;-7.392614;-2.039626;-0.531250;0.178955;0.414307;0.109128;-0.658618;-0.029500;-0.743938
29094;17.823151;-4.579073;12.923985;-2.844251;-7.080938;-2.029918;-0.490479;0.144531;0.471191;0.078957;-0.703129;-0.029367;-0.706054
29095;9.806384;-7.893304;15.696573;-3.111270;-4.873519;-1.795535;-0.451660;0.114746;0.518799;0.048860;-0.732487;-0.024726;-0.678575
29096;13.371458;-10.729822;17.112490;-1.370181;-1.653234;-2.555730;-0.458008;0.082520;0.533203;0.025664;-0.741562;-0.033194;-0.669571
29097;2.448404;-6.965644;14.733035;-0.277492;1.397072;-2.594836;-0.471924;0.051025;0.534668;0.009823;-0.732859;-0.047299;-0.678663
29098;-3.747471;-3.625094;10.358969;-0.300771;2.052525;-2.573625;-0.490967;0.030762;0.523193;-0.005794;-0.719960;-0.061039;-0.691302
29099;-2.913529;-3.132461;7.837064;-0.581937;2.144420;-2.323911;-0.515625;-0.004639;0.509033;-0.021616;-0.706112;-0.071614;-0.704138
29100;-0.628059;-4.251910;6.810795;-0.586454;2.541076;-1.633225;-0.529297;-0.012939;0.487061;-0.033166;-0.689863;-0.078115;-0.718948
29101;0.128180;-3.974861;6.650913;-0.317200;3.203607;-0.668286;-0.560791;-0.026123;0.469971;-0.036941;-0.669861;-0.080803;-0.737151
29102;-0.025206;-2.709184;6.631125;-0.280618;3.725507;0.379815;-0.586182;-0.019043;0.437744;-0.033701;-0.646789;-0.077952;-0.757926
29103;0.564416;-2.123449;6.660437;-0.496457;4.013012;1.283755;-0.605713;-0.011475;0.401855;-0.025700;-0.621703;-0.068859;-0.779797
29104;2.029680;-2.657893;6.820012;-0.570719;4.296945;1.902610;-0.642090;0.013184;0.352783;-0.013873;-0.594233;-0.056042;-0.802218
29105;3.815185;-2.740573;7.483914;-0.389488;4.697347;2.203134;-0.664062;0.023926;0.310791;0.001059;-0.563220;-0.042900;-0.825192
29106;5.102383;-1.992695;8.406598;-0.279369;5.177062;2.278707;-0.689453;0.058105;0.249023;0.017184;-0.527772;-0.030069;-0.848680
29107;5.934340;-1.599575;9.370287;-0.405590;5.554126;2.261705;-0.697998;0.087891;0.200928;0.032675;-0.488415;-0.016299;-0.871847
29108;7.237030;-1.658129;10.701313;-0.602673;5.867554;2.218289;-0.713867;0.116699;0.127441;0.046993;-0.445535;-0.001154;-0.894030
29109;8.944618;-1.205055;12.471774;-0.863513;6.173242;2.185909;-0.714111;0.142822;0.071289;0.059957;-0.399184;0.015929;-0.914770
29110;10.566156;-1.338222;14.135446;-1.186199;6.411360;2.116763;-0.714600;0.170166;-0.002930;0.071090;-0.349925;0.035299;-0.933409
29111;13.388172;-2.070632;16.051967;-1.292401;6.468101;2.010570;-0.705078;0.193359;-0.073486;0.080828;-0.299162;0.055090;-0.949175
29112;18.936898;-2.076537;16.482029;-1.336109;6.474360;2.070938;-0.687744;0.235107;-0.128418;0.090657;-0.247354;0.075184;-0.961741
29113;22.550569;-4.431003;13.947564;-1.099132;6.404249;2.283603;-0.662598;0.257812;-0.191650;0.102418;-0.194971;0.093500;-0.970955
29114;24.226271;-4.677011;10.265375;-0.327630;5.806466;2.385838;-0.629639;0.293213;-0.253174;0.116413;-0.146094;0.104937;-0.976777
29115;27.723558;-1.585412;6.942606;-0.416690;4.761806;2.334421;-0.598633;0.301514;-0.302490;0.130521;-0.105503;0.115762;-0.978996
29116;30.278912;1.631215;-0.231592;-1.004579;3.584080;2.385884;-0.565186;0.331543;-0.328125;0.145461;-0.074938;0.129939;-0.977927
29117;31.466508;5.135513;-8.003790;-0.941351;2.129474;2.788492;-0.543457;0.364014;-0.342285;0.165145;-0.055638;0.141926;-0.974417
29118;31.123381;4.318811;-14.987525;0.377425;0.698312;2.076219;-0.530518;0.375732;-0.349121;0.181267;-0.046965;0.140799;-0.972169
29119;28.583081;10.250216;-11.180276;0.744379;-1.014370;0.386969;-0.541260;0.368164;-0.343750;0.185833;-0.053601;0.133406;-0.972006
29120;9.724747;4.293691;4.837567;0.778054;-2.711932;-0.569786;-0.551514;0.360840;-0.318359;0.184512;-0.074996;0.122618;-0.972263
29121;-22.168089;15.505654;32.884855;-1.178575;-4.250376;-0.059264;-0.574951;0.369141;-0.257568;0.187510;-0.111270;0.125506;-0.967836
29122;12.341279;-6.019096;2.034516;-1.296540;-4.487525;0.323148;-0.592041;0.371338;-0.200928;0.193478;-0.149074;0.129128;-0.961077
29123;13.650449;-3.792268;16.024718;-1.163482;-5.920675;0.071084;-0.619141;0.385498;-0.137939;0.198737;-0.198104;0.128799;-0.951141
29124;17.364825;-6.667162;12.412893;-0.631122;-3.982607;-0.553440;-0.626221;0.378418;-0.090576;0.197485;-0.231216;0.126181;-0.944255
29125;19.213483;-12.530657;8.824184;0.875420;-1.485605;-0.609176;-0.628662;0.367432;-0.075684;0.195936;-0.242109;0.115618;-0.943199
29126;3.027340;0.581775;9.357483;0.764951;-1.062703;-0.618845;-0.634033;0.361328;-0.072266;0.193641;-0.249827;0.106574;-0.942726
29127;5.928082;-4.657644;7.794920;0.735698;-0.799661;-0.623541;-0.638916;0.351318;-0.062012;0.190992;-0.255496;0.098156;-0.942661
29128;6.103260;-1.370565;9.037620;0.669160;-0.633165;-0.582320;-0.643066;0.346680;-0.064941;0.188370;-0.259904;0.090606;-0.942739
29129;4.962818;-2.254579;8.382071;0.559712;-0.473532;-0.488029;-0.646484;0.342285;-0.058105;0.186120;-0.263141;0.084361;-0.942868
29130;5.325339;-1.852355;8.598536;0.494252;-0.371753;-0.435327;-0.656006;0.340088;-0.061768;0.184060;-0.265630;0.078898;-0.943047
29131;5.395174;-1.798200;8.807214;0.400405;-0.280925;-0.370517;-0.650879;0.328125;-0.055664;0.182238;-0.267497;0.074452;-0.943235
29132;5.269103;-1.938604;8.514188;0.336671;-0.207349;-0.319340;-0.652832;0.334717;-0.058594;0.180626;-0.268844;0.070730;-0.943448
29133;5.257494;-1.957632;8.519163;0.298744;-0.120919;-0.239257;-0.653564;0.327393;-0.055420;0.179506;-0.269517;0.067614;-0.943698
29134;5.392337;-1.903463;8.416739;0.315334;-0.050877;-0.181798;-0.661377;0.320801;-0.063965;0.178834;-0.269579;0.064600;-0.944019
29135;5.193214;-1.900384;8.377684;0.274784;0.010502;-0.126285;-0.670654;0.318359;-0.059570;0.178474;-0.269186;0.062120;-0.944366
29136;5.237564;-1.724578;8.461261;0.220164;0.058043;-0.099105;-0.662842;0.321045;-0.067383;0.178180;-0.268485;0.060201;-0.944745
29137;4.979165;-2.015309;8.385948;0.172103;0.091904;-0.087861;-0.655029;0.322510;-0.058105;0.177849;-0.267581;0.058736;-0.945156
29138;4.969008;-1.906286;8.367382;0.164896;0.107539;-0.100678;-0.654541;0.320801;-0.062012;0.177394;-0.266570;0.057322;-0.945614
29139;4.863900;-1.815405;8.462974;0.155792;0.101682;-0.103009;-0.661133;0.308350;-0.065186;0.176902;-0.265619;0.055965;-0.946055
29140;4.802211;-1.733492;8.471205;0.150548;0.055538;-0.106640;-0.661377;0.312988;-0.073730;0.176391;-0.265040;0.054574;-0.946394
29141;4.798181;-1.677369;8.429719;0.142783;-0.005831;-0.108577;-0.652588;0.313232;-0.072754;0.175875;-0.264956;0.053149;-0.946595
29142;4.850113;-1.677778;8.429662;0.132390;-0.057320;-0.108984;-0.662109;0.313965;-0.077148;0.175356;-0.265293;0.051730;-0.946675
29143;4.843855;-1.694670;8.381367;0.138375;-0.098784;-0.109936;-0.659180;0.303711;-0.072266;0.174860;-0.265947;0.050200;-0.946666
29144;4.934289;-1.616728;8.388607;0.132268;-0.138444;-0.105295;-0.661377;0.305664;-0.069092;0.174403;-0.266921;0.048671;-0.946556
29145;4.885840;-1.622169;8.412162;0.147460;-0.173655;-0.098868;-0.668213;0.306396;-0.068604;0.174044;-0.268146;0.046985;-0.946361
29146;5.019038;-1.449361;8.350221;0.129409;-0.198225;-0.087157;-0.667480;0.291992;-0.071533;0.173746;-0.269585;0.045431;-0.946083
29147;5.020871;-1.465241;8.344379;0.098161;-0.212104;-0.070596;-0.664795;0.295654;-0.067383;0.173512;-0.271170;0.044140;-0.945733
29148;4.983706;-1.490623;8.351335;0.080669;-0.231158;-0.067227;-0.673096;0.307373;-0.058594;0.173273;-0.272929;0.042966;-0.945325
29149;4.875184;-1.584299;8.524149;0.060262;-0.291875;-0.069011;-0.671143;0.305176;-0.063232;0.172993;-0.275195;0.041860;-0.944769
29150;4.961414;-1.610783;8.297672;0.057619;-0.377267;-0.092783;-0.666260;0.293945;-0.050781;0.172548;-0.278142;0.040597;-0.944043
29151;4.734672;-0.290182;9.089918;-0.017423;-0.483032;-0.027616;-0.664062;0.300293;-0.046387;0.172475;-0.282003;0.039923;-0.942939
29152;4.377543;-1.108796;9.510725;-0.094734;-0.749242;0.054846;-0.665771;0.299316;-0.043213;0.172952;-0.288031;0.039664;-0.941038
29153;4.066376;-2.062792;9.781933;-0.151566;-1.125054;-0.021291;-0.671875;0.300781;-0.023926;0.172809;-0.297093;0.039123;-0.938265
29154;3.951154;-2.164807;10.081874;-0.150610;-1.569559;-0.146740;-0.678711;0.292725;-0.008057;0.171806;-0.309630;0.037619;-0.934450
29155;3.700969;-1.461230;10.694291;-0.153815;-2.116484;-0.237655;-0.676270;0.286865;0.014893;0.170213;-0.326381;0.035113;-0.929123
29156;3.044155;-1.262623;11.436001;-0.412871;-2.889472;-0.272716;-0.674316;0.297119;0.045898;0.167790;-0.349341;0.033406;-0.921244
29157;2.015568;-1.180337;12.200475;-0.611332;-4.035375;-0.340965;-0.676025;0.293213;0.104736;0.164433;-0.381081;0.031390;-0.909260
29158;1.069449;-2.570582;12.979291;-0.622650;-5.688696;-0.444806;-0.669922;0.275635;0.170898;0.160396;-0.424717;0.026812;-0.890601
29159;2.820751;-6.062333;12.786370;-0.638658;-7.357718;-1.043615;-0.658203;0.264648;0.251221;0.151733;-0.479564;0.017927;-0.864103
29160;7.399082;-2.535893;11.139487;-0.601377;-8.414525;-1.610937;-0.624023;0.248291;0.338867;0.138605;-0.539881;0.005104;-0.830236
29161;22.054724;-2.771854;13.694392;-1.547097;-8.450462;-1.328324;-0.584229;0.226318;0.422852;0.122455;-0.598722;0.000024;-0.791541
29162;19.503183;-7.306845;11.257816;-1.066306;-7.166982;-1.841890;-0.536133;0.204346;0.498047;0.104751;-0.645890;-0.009480;-0.756150
29163;18.480671;-5.001636;13.408110;-1.431271;-6.519430;-1.793701;-0.494873;0.163330;0.559570;0.085053;-0.686979;-0.015817;-0.721509
29164;8.480468;-4.315510;13.790566;-2.426016;-5.388342;-1.487628;-0.461182;0.126953;0.604492;0.061395;-0.719990;-0.013567;-0.691130
29165;12.451071;-5.829558;15.236857;-2.405725;-3.102514;-2.308520;-0.437500;0.084473;0.631592;0.033260;-0.738291;-0.015148;-0.673491
29166;9.885100;-9.467083;13.721262;-1.372604;0.442442;-2.644599;-0.459229;0.047607;0.630615;0.010002;-0.735602;-0.023579;-0.676930
29167;0.488217;-6.228420;9.983684;-0.401352;2.139941;-2.818886;-0.489990;0.014893;0.618896;-0.007963;-0.722663;-0.038372;-0.690089
29168;-1.811641;-2.965715;7.323811;-0.322113;2.483729;-2.877337;-0.524414;-0.023438;0.597412;-0.025675;-0.707048;-0.053942;-0.704638
29169;-1.137974;-2.704445;6.121537;-0.706501;2.631145;-2.451182;-0.544678;-0.060791;0.582031;-0.043063;-0.689988;-0.064716;-0.719635
29170;0.059959;-4.565839;5.351906;-0.698923;2.959804;-1.651587;-0.577637;-0.082031;0.557861;-0.055404;-0.670780;-0.070992;-0.736169
29171;0.950382;-4.308231;5.600818;-0.393498;3.486300;-0.626970;-0.611328;-0.104492;0.523682;-0.059400;-0.648514;-0.073586;-0.755306
29172;0.669034;-2.776162;5.949819;-0.426804;3.920312;0.509118;-0.658203;-0.095459;0.486816;-0.056110;-0.623551;-0.069965;-0.776621
29173;0.781597;-2.357437;5.943656;-0.730479;4.140564;1.489140;-0.703613;-0.101807;0.436523;-0.047867;-0.596814;-0.059299;-0.798752
29174;1.958099;-2.814080;6.152058;-0.833570;4.308485;2.138449;-0.730225;-0.079834;0.393311;-0.035668;-0.568328;-0.044693;-0.820813
29175;3.561290;-2.746827;7.063106;-0.694772;4.582778;2.471995;-0.777832;-0.062012;0.334229;-0.020374;-0.537108;-0.029457;-0.842753
29176;5.040452;-1.748756;8.679058;-0.617507;4.927487;2.626311;-0.805176;-0.037598;0.267090;-0.003535;-0.502408;-0.014068;-0.864509
29177;6.634646;-0.358423;10.424038;-0.841119;5.358804;2.671558;-0.846924;0.000244;0.188721;0.012742;-0.463404;0.003138;-0.886050
29178;8.283338;0.217209;11.477928;-1.331786;5.782265;2.525858;-0.868164;0.016846;0.093750;0.025994;-0.420064;0.023432;-0.906820
29179;9.977049;-0.692274;12.494623;-1.634023;6.021396;2.203619;-0.878662;0.053223;-0.007812;0.035625;-0.373791;0.044853;-0.925742
29180;12.693323;-1.072502;14.204990;-1.674703;6.055053;1.868694;-0.874023;0.073486;-0.098877;0.042421;-0.326262;0.065412;-0.942059
29181;16.828620;-3.081718;15.325564;-1.509949;6.061520;1.676075;-0.862061;0.099609;-0.198975;0.048019;-0.277760;0.083953;-0.955769
29182;19.717721;-4.598580;14.740142;-1.083035;6.076528;1.708772;-0.827148;0.125977;-0.298340;0.054712;-0.228144;0.098925;-0.967042
29183;20.637479;-3.861625;12.936625;-0.738213;5.647605;2.032471;-0.789307;0.167480;-0.392334;0.064869;-0.180943;0.111264;-0.975024
29184;23.429058;-2.205121;10.346348;-0.850952;4.873544;2.419470;-0.743408;0.196289;-0.460205;0.078564;-0.139312;0.124414;-0.979255
29185;25.962946;-0.115368;5.684684;-1.256599;4.210163;2.710880;-0.692627;0.237549;-0.498535;0.094702;-0.102787;0.140517;-0.980164
29186;24.707222;3.928399;-0.633381;-1.132778;3.167836;3.083434;-0.652588;0.289307;-0.534912;0.115062;-0.074081;0.154859;-0.978413
29187;27.516927;5.260935;-8.425507;-0.494119;1.754707;2.913203;-0.612793;0.316162;-0.562744;0.136138;-0.056433;0.162343;-0.975667
29188;28.034639;9.292452;-13.165397;0.418129;0.308818;1.707490;-0.606689;0.337891;-0.564209;0.149744;-0.051125;0.160104;-0.974335
29189;25.434032;8.600532;-9.692651;0.388060;-1.317411;0.466089;-0.619385;0.341553;-0.552002;0.155424;-0.060730;0.155502;-0.973640
29190;23.173477;4.057645;-2.569877;1.192498;-2.411552;0.028736;-0.636963;0.322021;-0.541016;0.159352;-0.078738;0.142665;-0.973681
29191;-6.554922;-4.556497;18.698016;2.583018;-3.293278;-0.285618;-0.679199;0.291016;-0.520508;0.162571;-0.102374;0.117032;-0.974368
29192;-29.192509;1.788770;35.554174;1.453865;-3.742506;-1.215527;-0.718262;0.259277;-0.492432;0.157514;-0.131958;0.099021;-0.973638
29193;21.104724;6.141173;6.946213;-0.073911;-5.800250;-1.236226;-0.757568;0.243652;-0.418457;0.152014;-0.179980;0.090498;-0.967631
29194;19.003933;-3.482406;14.111659;-0.204157;-3.096278;-0.410165;-0.793213;0.238770;-0.375977;0.150720;-0.205491;0.087517;-0.963015
29195;5.516723;-4.431330;9.107040;-0.011551;-2.565158;-0.508158;-0.808105;0.240234;-0.352539;0.148499;-0.226460;0.083427;-0.959012
29196;8.653467;-2.600517;8.745693;0.254628;-2.173058;-0.474716;-0.826660;0.228760;-0.332520;0.146709;-0.243849;0.077724;-0.955496
29197;6.859979;-1.566229;8.815579;0.257543;-1.593611;-0.403127;-0.829590;0.218262;-0.297852;0.145079;-0.256511;0.072827;-0.952812
29198;6.260337;-2.649327;8.584859;0.274434;-1.404490;-0.439162;-0.839355;0.214355;-0.288330;0.143060;-0.267628;0.067931;-0.950418
29199;10.357923;-1.672333;9.392460;0.440440;-0.728958;-0.388475;-0.846436;0.200439;-0.270996;0.141412;-0.273139;0.062630;-0.949460
29200;4.824885;-1.714408;8.463657;0.296081;-0.410107;-0.408220;-0.846680;0.202393;-0.270508;0.139110;-0.276298;0.058794;-0.949132
29201;5.515433;-1.481888;8.369847;0.364440;-0.273668;-0.321770;-0.847412;0.187500;-0.269531;0.137579;-0.278248;0.054772;-0.949026
29202;5.766984;-1.516109;8.396897;0.329856;-0.259394;-0.258424;-0.859863;0.187012;-0.266846;0.136460;-0.280090;0.051185;-0.948846
29203;5.753062;-0.958746;8.588391;0.281488;-0.237981;-0.184839;-0.859863;0.180420;-0.261719;0.135799;-0.281782;0.048175;-0.948597
29204;5.671203;-1.268923;8.534989;0.236713;-0.220095;-0.126285;-0.852051;0.174805;-0.269775;0.135488;-0.283356;0.045674;-0.948296
29205;5.748900;-0.703235;8.726483;0.159517;-0.199583;-0.092482;-0.863525;0.178223;-0.258789;0.135254;-0.284841;0.043884;-0.947970
29206;5.473200;-1.202048;8.473981;0.067070;-0.226254;-0.055047;-0.855225;0.179443;-0.262939;0.135107;-0.286625;0.042882;-0.947498
29207;5.509440;-1.547241;8.190933;0.050918;-0.239598;-0.053160;-0.863281;0.177002;-0.260986;0.134940;-0.288531;0.041995;-0.946983
29208;5.631666;-1.605345;7.979642;0.059194;-0.210114;-0.059435;-0.867432;0.180176;-0.258545;0.134732;-0.290197;0.041060;-0.946545
29209;5.717535;-1.539211;7.915116;0.068626;-0.151446;-0.054304;-0.854492;0.169678;-0.248047;0.134567;-0.291386;0.040129;-0.946243
29210;5.642783;-1.389466;7.975332;0.065646;-0.102089;-0.038957;-0.865234;0.174072;-0.238770;0.134499;-0.292183;0.039314;-0.946041
29211;5.564265;-1.270120;8.104109;0.054278;-0.097061;-0.018881;-0.861816;0.166748;-0.251221;0.134560;-0.292947;0.038643;-0.945824
29212;5.492248;-0.966555;8.201427;-0.001226;-0.117285;0.008064;-0.862305;0.171875;-0.245605;0.134704;-0.293924;0.038452;-0.945508
29213;5.559304;-1.067525;8.044482;-0.070891;-0.161400;0.041249;-0.862549;0.168213;-0.245605;0.134953;-0.295316;0.038841;-0.945023
29214;5.537512;-1.381922;7.921524;-0.094798;-0.166178;0.057782;-0.870850;0.168701;-0.247559;0.135275;-0.296766;0.039452;-0.944497
29215;5.453482;-1.559037;7.914664;-0.115338;-0.182015;0.031111;-0.870850;0.172363;-0.238281;0.135340;-0.298372;0.040140;-0.943952
29216;5.562996;-1.709426;7.719645;-0.105421;-0.173732;-0.014428;-0.864746;0.180420;-0.233398;0.135068;-0.299917;0.040647;-0.943480
29217;5.671992;-1.634115;7.632449;-0.077053;-0.143343;-0.060552;-0.872070;0.173096;-0.229248;0.134494;-0.301205;0.040849;-0.943143
29218;5.385704;-1.428628;7.967265;-0.073278;-0.123419;-0.090958;-0.868652;0.174316;-0.233398;0.133682;-0.302342;0.040968;-0.942889
29219;4.708738;-1.475245;8.304533;-0.208416;-0.251182;-0.236452;-0.874512;0.166992;-0.230469;0.131428;-0.304682;0.041640;-0.942423
29220;5.261173;-1.159368;8.320900;-0.360621;-0.425825;-0.390784;-0.871094;0.160889;-0.216553;0.127633;-0.308605;0.042922;-0.941611
29221;5.610878;-0.635037;8.588557;-0.393469;-0.523058;-0.279369;-0.877197;0.162109;-0.211182;0.124658;-0.313275;0.044643;-0.940386
29222;5.282591;-0.201165;9.180325;-0.493804;-0.739842;-0.070866;-0.878418;0.166992;-0.199219;0.123129;-0.319656;0.047464;-0.938300
29223;5.009511;0.062304;9.727185;-0.664159;-1.090416;0.118010;-0.881104;0.162598;-0.190430;0.122752;-0.328851;0.051752;-0.934939
29224;4.901788;0.444602;10.188116;-0.930242;-1.521304;0.322671;-0.883545;0.176758;-0.161133;0.123404;-0.341530;0.058220;-0.929913
29225;4.298390;0.179235;10.929230;-1.063908;-2.135093;0.630951;-0.882568;0.181885;-0.123291;0.126320;-0.358842;0.065944;-0.922457
29226;2.260724;0.594524;13.227844;-1.186114;-3.357379;1.063100;-0.889648;0.197754;-0.068359;0.132773;-0.385189;0.074561;-0.910188
29227;0.313330;-1.315958;14.948232;-1.656263;-5.174939;1.358716;-0.886475;0.224854;0.022705;0.140871;-0.425041;0.085553;-0.890043
29228;-0.399126;-4.126939;15.277263;-2.263565;-7.211706;1.175925;-0.876953;0.236328;0.135986;0.146459;-0.479488;0.097737;-0.859703
29229;9.271208;-7.155285;14.744623;-2.617252;-8.901711;0.365331;-0.837891;0.239014;0.268799;0.145452;-0.544686;0.106664;-0.819014
29230;23.768475;-10.235758;9.680368;-1.928958;-8.744574;-0.530537;-0.794678;0.219971;0.390381;0.140457;-0.605621;0.106413;-0.775997
29231;21.718832;-8.299128;9.428105;-0.697697;-6.795298;-1.284631;-0.755371;0.200195;0.477539;0.134427;-0.650497;0.096205;-0.741301
29232;15.165823;-10.478768;8.420150;1.437677;-5.861024;-1.387035;-0.715820;0.190186;0.524658;0.138170;-0.685338;0.073011;-0.711260
29233;7.013615;-4.099529;14.020549;3.292738;-3.918530;-1.736434;-0.687744;0.212646;0.570557;0.148921;-0.705132;0.038910;-0.692169
29234;9.029228;-0.924778;14.143167;3.382916;-1.418486;-3.120813;-0.679443;0.206299;0.565430;0.151133;-0.709551;-0.000805;-0.688255
29235;1.625399;-3.663027;9.734118;3.319602;0.163749;-4.012308;-0.693115;0.189941;0.552002;0.147603;-0.703718;-0.043427;-0.693620
29236;0.906464;-5.445973;6.697512;4.064007;0.951625;-4.699832;-0.719727;0.176025;0.512695;0.144404;-0.690530;-0.093288;-0.702576
29237;2.227763;-4.899884;6.576759;4.628417;1.766341;-4.685662;-0.750000;0.153809;0.489014;0.144730;-0.669838;-0.145086;-0.713667
29238;2.734781;-7.313999;6.200965;4.676381;2.775557;-4.042117;-0.774902;0.141113;0.425781;0.149896;-0.641713;-0.191876;-0.727269
29239;3.478657;-10.680346;5.007014;4.881737;3.756450;-3.323998;-0.818359;0.120117;0.358398;0.161573;-0.606423;-0.234188;-0.742497
29240;3.827889;-11.308372;3.984038;5.020980;4.496015;-2.737321;-0.850586;0.105225;0.286377;0.178436;-0.565376;-0.272541;-0.757781
29241;4.801958;-12.052046;3.409389;4.651660;4.891030;-2.303366;-0.874023;0.102295;0.196045;0.196535;-0.521339;-0.304925;-0.772399
29242;6.518875;-11.926446;3.341617;3.849477;5.131221;-1.715053;-0.890625;0.081787;0.111816;0.214879;-0.476851;-0.328173;-0.786602
29243;8.331315;-11.869878;3.107117;2.620886;5.283341;-0.863210;-0.895752;0.078857;0.029297;0.233727;-0.434579;-0.338790;-0.801083
29244;9.786615;-13.276656;2.111027;1.472249;5.241470;0.162809;-0.890869;0.061279;-0.058105;0.254596;-0.396738;-0.337326;-0.814856
29245;11.218964;-13.876841;1.563794;1.010305;5.009920;1.303441;-0.887939;0.072266;-0.143066;0.280504;-0.363866;-0.328759;-0.825128
29246;12.231767;-12.054679;2.223763;0.691597;4.692361;2.513459;-0.868164;0.105713;-0.211670;0.312326;-0.336519;-0.314417;-0.830872
29247;13.085913;-10.677046;3.195218;0.324840;4.305318;3.630255;-0.840576;0.170166;-0.283936;0.349165;-0.315018;-0.294744;-0.831849
29248;13.833670;-8.985054;4.417906;0.030089;3.907098;4.567497;-0.796875;0.225098;-0.340820;0.389915;-0.298682;-0.271028;-0.827828
29249;15.157686;-9.337518;4.952186;-0.154072;3.540178;5.218050;-0.742920;0.292725;-0.398682;0.432834;-0.286142;-0.244899;-0.819025
29250;16.456278;-11.027415;4.578886;0.439656;3.332352;5.734984;-0.700928;0.361816;-0.447998;0.479010;-0.273085;-0.221628;-0.804273
29251;16.109640;-10.266748;4.466048;1.417473;3.022352;6.305642;-0.628418;0.412354;-0.490967;0.529084;-0.258343;-0.204121;-0.782089
29252;15.805535;-8.511067;4.665383;1.577168;2.489483;7.191968;-0.541504;0.475586;-0.530518;0.582334;-0.246866;-0.187318;-0.751569
29253;15.559814;-9.861621;3.689576;1.470963;1.845924;8.150048;-0.463135;0.532471;-0.558350;0.637696;-0.240280;-0.170157;-0.711798
29254;15.672185;-8.527782;3.261792;1.677609;1.153586;8.865983;-0.358398;0.579834;-0.574219;0.693327;-0.236412;-0.155566;-0.662727
29255;15.917427;-7.640370;3.203154;1.935092;0.617683;9.060730;-0.260986;0.605713;-0.607666;0.745804;-0.232874;-0.144211;-0.607247
29256;16.373822;-6.591205;3.016660;2.463243;0.241785;8.581462;-0.162598;0.613525;-0.636230;0.792164;-0.226035;-0.137976;-0.549861
29257;16.166580;-5.824195;2.296811;2.861965;0.003856;7.681456;-0.079834;0.601807;-0.669678;0.830868;-0.215468;-0.136144;-0.494669
29258;15.380421;-5.691647;0.951077;2.926601;-0.312528;6.564354;-0.015869;0.570312;-0.701416;0.861319;-0.203602;-0.138227;-0.444487
29259;14.998707;-5.959457;-0.314861;2.520963;-0.720449;5.671390;0.031006;0.538574;-0.714844;0.884608;-0.194493;-0.142829;-0.399049
29260;14.374268;-5.719971;-1.115289;1.882031;-1.265719;5.231300;0.064697;0.517090;-0.738037;0.902564;-0.190905;-0.149697;-0.355704
29261;12.494733;-3.493455;-1.446383;1.391197;-2.007273;4.867597;0.077637;0.491943;-0.755371;0.915792;-0.192347;-0.160954;-0.313722
29262;13.185631;-7.907800;-2.552848;1.388235;-2.967913;4.009540;0.071777;0.467773;-0.778564;0.923690;-0.194797;-0.180602;-0.276106
29263;24.126410;-3.270192;-4.082890;5.388921;-3.756898;0.476079;0.031982;0.407959;-0.827393;0.926520;-0.162495;-0.220817;-0.257673
29264;21.964068;18.963976;24.909288;2.506457;0.279412;-1.511135;0.024414;0.356689;-0.838623;0.926946;-0.139823;-0.226009;-0.264841
29265;0.451478;-3.236824;11.611572;0.329187;-0.490620;-0.933985;0.011230;0.356445;-0.846191;0.924335;-0.136677;-0.231595;-0.270717
29266;6.444711;0.413246;9.222146;0.302898;-0.323287;-0.694989;0.002686;0.362305;-0.839844;0.922498;-0.133806;-0.235539;-0.274979
29267;5.378529;-3.187553;7.975975;0.109893;-0.169534;-0.623290;-0.014160;0.349854;-0.836182;0.920878;-0.132199;-0.237772;-0.279235
29268;5.728821;-0.775981;8.157692;0.086881;-0.062912;-0.505999;-0.008057;0.363770;-0.838867;0.919696;-0.130752;-0.238999;-0.282742
29269;5.394020;-0.904644;8.335183;0.057015;0.075759;-0.403575;0.001221;0.347412;-0.843994;0.918986;-0.129408;-0.238978;-0.285671
29270;5.161360;-1.452270;8.369669;0.050590;0.136867;-0.399959;-0.006104;0.351807;-0.842041;0.918389;-0.127972;-0.238469;-0.288648
29271;5.252150;-0.909328;8.664602;0.050083;0.145901;-0.330859;-0.002930;0.349121;-0.848877;0.917966;-0.126656;-0.237813;-0.291105
29272;5.155901;-0.855768;8.631589;0.069191;0.128723;-0.237914;-0.007080;0.347656;-0.848877;0.917748;-0.125417;-0.237235;-0.292794
29273;4.877187;-1.189685;8.569024;0.084720;0.100607;-0.188516;-0.007568;0.347656;-0.850098;0.917608;-0.124225;-0.236857;-0.294045
29274;4.978505;-1.243074;8.428928;0.095087;0.036982;-0.229870;-0.011475;0.347412;-0.848633;0.917248;-0.123027;-0.237033;-0.295525
29275;5.280023;-0.734335;8.446935;0.082111;0.032691;-0.208195;-0.012695;0.343018;-0.849609;0.916917;-0.121981;-0.237186;-0.296860
29276;5.124730;-0.711317;8.520613;0.074673;0.037328;-0.141843;-0.006836;0.344971;-0.842773;0.916750;-0.121111;-0.237218;-0.297708
29277;5.129344;-0.723189;8.488304;0.063139;0.032212;-0.088223;-0.009277;0.335938;-0.850586;0.916692;-0.120446;-0.237205;-0.298165
29278;5.155840;-0.645477;8.490953;0.047373;0.049298;-0.038935;0.000000;0.340820;-0.852051;0.916774;-0.119957;-0.236974;-0.298294
29279;5.056611;-0.706345;8.486216;0.036352;0.047206;0.006874;-0.009277;0.344971;-0.844727;0.916954;-0.119646;-0.236685;-0.298095
29280;4.921027;-0.778881;8.532381;0.031365;0.036073;0.035644;-0.009277;0.341064;-0.845215;0.917178;-0.119457;-0.236439;-0.297675
29281;4.889338;-0.829787;8.541984;0.020842;-0.019657;0.036091;-0.010742;0.340576;-0.847656;0.917283;-0.119487;-0.236593;-0.297218
29282;4.921332;-0.899158;8.445725;0.012503;-0.045018;0.025330;-0.006836;0.339355;-0.852051;0.917302;-0.119622;-0.236931;-0.296836
29283;4.945406;-0.835072;8.442192;0.005324;-0.058923;0.025069;-0.012451;0.337891;-0.840332;0.917286;-0.119844;-0.237357;-0.296456
29284;4.956148;-0.886567;8.375042;0.001822;-0.050173;0.024756;-0.009766;0.334473;-0.850098;0.917282;-0.120071;-0.237708;-0.296095
29285;4.898605;-0.895519;8.426197;-0.018847;-0.069720;0.011671;-0.019043;0.341064;-0.850098;0.917186;-0.120477;-0.238170;-0.295857
29286;5.000523;-0.978900;8.361968;-0.023925;-0.073038;-0.004007;-0.009521;0.340332;-0.846436;0.917039;-0.120898;-0.238660;-0.295745
29287;4.928489;-1.052020;8.411184;-0.024078;-0.075666;-0.030308;-0.009521;0.339600;-0.844482;0.916821;-0.121274;-0.239197;-0.295833
29288;4.995001;-0.931354;8.448606;-0.018468;-0.070700;-0.046514;-0.016113;0.345703;-0.850098;0.916578;-0.121562;-0.239726;-0.296038
29289;4.899775;-0.827883;8.583316;-0.027506;-0.092430;-0.042015;-0.018799;0.342041;-0.858154;0.916293;-0.121980;-0.240394;-0.296206
29290;4.999169;-0.726414;8.519415;-0.052586;-0.121523;-0.032520;-0.023926;0.343750;-0.849609;0.915947;-0.122680;-0.241212;-0.296322
29291;5.112448;-0.695088;8.448184;-0.050407;-0.131132;0.025578;-0.015625;0.344238;-0.847900;0.915726;-0.123503;-0.242049;-0.295982
29292;5.061692;-0.737278;8.479569;-0.023314;-0.126572;0.091152;-0.028809;0.341064;-0.855713;0.915701;-0.124239;-0.242851;-0.295092
29293;5.137656;-0.933220;8.336216;0.027835;-0.116854;0.133370;-0.029785;0.334473;-0.849609;0.915851;-0.124645;-0.243659;-0.293787
29294;5.019061;-1.506980;8.293422;0.055438;-0.086951;0.083923;-0.026855;0.346191;-0.840332;0.915967;-0.124666;-0.244358;-0.292835
29295;5.067227;-1.443543;8.266876;0.071990;-0.008121;0.001599;-0.018311;0.335693;-0.847900;0.916059;-0.124200;-0.244580;-0.292558
29296;4.709451;-1.369745;8.678753;0.114313;0.006186;-0.081643;-0.026611;0.339600;-0.848389;0.916021;-0.123206;-0.244882;-0.292844
29297;4.402798;-1.220589;9.388684;0.138572;-0.141847;-0.129698;-0.025146;0.337402;-0.844971;0.915587;-0.122290;-0.246422;-0.293296
29298;4.130614;-1.723780;9.929344;0.259760;-0.447602;-0.177874;-0.029541;0.332275;-0.851807;0.914519;-0.121095;-0.250634;-0.293553
29299;3.770708;-1.891365;10.653581;0.453715;-0.878353;-0.258203;-0.045654;0.324219;-0.860596;0.912510;-0.119300;-0.258671;-0.293569
29300;2.980325;-2.312788;12.442026;0.609917;-1.586735;-0.414582;-0.076172;0.314697;-0.856934;0.908618;-0.117693;-0.272591;-0.293694
29301;3.160258;-3.895361;11.924947;0.938864;-2.520892;-0.728188;-0.112305;0.303711;-0.859131;0.901821;-0.115121;-0.294587;-0.294421
29302;1.896887;-3.633961;12.596697;1.364021;-3.543460;-1.217878;-0.162842;0.291504;-0.851807;0.890988;-0.110563;-0.325529;-0.296559
29303;2.485596;-6.668302;12.181310;2.041490;-4.848149;-1.880530;-0.242676;0.249512;-0.845703;0.874157;-0.102215;-0.367895;-0.300093
29304;4.054444;-7.640935;12.059953;3.142258;-6.028688;-2.806911;-0.339844;0.187744;-0.829346;0.849763;-0.085658;-0.421287;-0.305096
29305;10.148154;-7.384742;11.751459;4.443509;-6.454480;-3.838202;-0.439941;0.104248;-0.801025;0.818371;-0.056968;-0.479809;-0.311139
29306;20.748395;-9.062111;12.630660;6.226001;-5.711031;-3.984609;-0.513184;-0.001953;-0.761963;0.785806;-0.013292;-0.535219;-0.309634
29307;19.798283;3.360286;12.897349;7.676479;-4.104472;-3.106926;-0.563721;-0.128174;-0.715332;0.758146;0.040199;-0.580547;-0.294218
29308;15.178830;-1.063563;17.765036;4.885886;-3.091179;-0.693173;-0.595947;-0.177246;-0.680664;0.739097;0.066762;-0.611052;-0.275486
29309;15.280700;-14.328447;16.339456;3.626470;-0.924290;1.496927;-0.607910;-0.207031;-0.665527;0.735535;0.079294;-0.625463;-0.247985
29310;1.899566;-5.267609;13.963194;4.442336;0.058632;2.166045;-0.611084;-0.229736;-0.647949;0.736923;0.095266;-0.635068;-0.211088
29311;-1.085526;-1.780838;13.269326;2.528381;0.099243;2.390705;-0.613525;-0.223633;-0.645996;0.739510;0.098262;-0.640404;-0.182626
29312;-1.072577;-5.684843;11.166185;1.607023;0.515042;1.942778;-0.609863;-0.218994;-0.656006;0.743910;0.098545;-0.640970;-0.161383
29313;-0.015735;-5.673139;10.566662;1.355982;1.368590;1.617506;-0.590820;-0.201904;-0.646973;0.752305;0.100117;-0.635332;-0.142712
29314;-0.160262;-6.022461;9.298001;1.043236;2.268134;1.658717;-0.567627;-0.199707;-0.679199;0.765372;0.100525;-0.623359;-0.124598
29315;0.131338;-6.010328;8.141560;0.770623;2.954551;1.872098;-0.540283;-0.182861;-0.713379;0.781867;0.098718;-0.606410;-0.105856
29316;1.709806;-5.497242;7.561265;0.436950;3.550560;2.199352;-0.499512;-0.172852;-0.738037;0.801097;0.093497;-0.584892;-0.086047
29317;3.129952;-5.307365;7.320138;0.111351;4.052504;2.458813;-0.433838;-0.149170;-0.779785;0.822077;0.085056;-0.559157;-0.065563
29318;4.769041;-5.318442;7.677960;-0.200358;4.452320;2.460969;-0.376221;-0.123291;-0.809814;0.843735;0.074531;-0.529557;-0.046102
29319;6.187924;-4.752082;8.368657;-0.619039;4.833210;2.281929;-0.313232;-0.086914;-0.830566;0.865629;0.061838;-0.495982;-0.029401
29320;7.262318;-4.464174;8.850759;-1.184135;5.210211;2.018830;-0.223389;-0.060303;-0.859375;0.887425;0.046090;-0.458340;-0.016656
29321;7.802493;-4.172450;9.403771;-1.734013;5.448244;1.759782;-0.143555;-0.024414;-0.875244;0.908161;0.027160;-0.417667;-0.007776
29322;8.632279;-3.181481;10.770347;-2.338002;5.496785;1.612428;-0.055908;0.023682;-0.882080;0.926820;0.004071;-0.375478;-0.002066
29323;11.125204;-3.570909;11.997204;-2.923781;5.437422;1.605225;0.041504;0.084717;-0.862305;0.942732;-0.023565;-0.332712;0.001770
29324;15.275770;-3.087292;12.933843;-3.049070;5.401319;1.942245;0.130859;0.129395;-0.846436;0.955757;-0.053086;-0.289218;0.007916
29325;17.793181;-1.259209;12.730002;-3.071235;5.292281;2.739883;0.214111;0.166504;-0.809814;0.965515;-0.084566;-0.245383;0.020383
29326;20.291448;0.273411;11.373375;-2.726509;4.830864;3.422868;0.284668;0.191895;-0.759277;0.971476;-0.114356;-0.203993;0.039300
29327;23.025827;1.696319;8.835900;-2.140438;4.245057;3.829467;0.364258;0.193359;-0.725586;0.974128;-0.139595;-0.166218;0.062931
29328;23.682438;3.035041;4.822161;-0.998587;3.603532;3.513101;0.415039;0.194092;-0.689697;0.975195;-0.154487;-0.133069;0.086151
29329;26.667320;5.794204;0.498575;-0.152904;2.581202;2.621487;0.460205;0.178711;-0.651367;0.975480;-0.160566;-0.108600;0.104224
29330;29.375422;6.801665;-4.591646;0.262544;1.527609;2.004662;0.472656;0.157715;-0.646484;0.975215;-0.161669;-0.093107;0.118951
29331;28.271155;7.529338;-7.511619;0.385755;0.293151;1.716179;0.477051;0.138428;-0.625000;0.974115;-0.160249;-0.087911;0.133008
29332;26.234285;4.027648;-7.423854;0.666155;-0.961559;1.304872;0.471924;0.112549;-0.636963;0.972717;-0.154803;-0.093149;0.145535
29333;5.734272;0.770698;-3.792692;4.357917;-3.879194;-0.362320;0.424072;0.072754;-0.669678;0.974587;-0.114396;-0.119605;0.150956
29334;5.038179;15.661384;27.705882;1.526300;-5.095166;-0.892760;0.368408;0.060547;-0.699463;0.971083;-0.094654;-0.159739;0.150074
29335;19.711373;6.890027;15.448858;0.486689;-3.899547;-2.010882;0.323975;0.064941;-0.713867;0.968131;-0.083125;-0.192102;0.137513
29336;11.248371;-8.096809;9.832086;0.315095;-2.426379;-1.056285;0.296143;0.081299;-0.732178;0.965440;-0.076094;-0.211957;0.131187
29337;6.428226;-0.896034;9.844289;0.254149;-2.438079;-0.058017;0.258545;0.068359;-0.743652;0.961156;-0.071274;-0.231256;0.132741
29338;8.737578;1.471417;10.678640;-0.138613;-2.032559;-0.477433;0.234375;0.072998;-0.747070;0.957539;-0.069209;-0.247908;0.129885
29339;9.955609;-6.085937;8.208352;0.075693;-0.888372;-0.468016;0.227295;0.072266;-0.752930;0.956223;-0.066671;-0.255151;0.126849
29340;7.335117;0.718079;9.847219;0.320513;-0.578997;-0.353016;0.229248;0.065918;-0.752197;0.955524;-0.062754;-0.259599;0.125078
29341;5.486283;-2.169451;8.676083;0.151051;-0.313182;-0.230008;0.220703;0.078857;-0.757568;0.955160;-0.060724;-0.262038;0.123767
29342;5.685850;-1.554976;8.633462;0.144023;-0.203726;-0.171975;0.204102;0.071289;-0.749512;0.954963;-0.058988;-0.263582;0.122846
29343;5.344142;-1.630695;8.585326;0.116339;-0.133132;-0.115880;0.210693;0.070068;-0.750488;0.954845;-0.057668;-0.264565;0.122274
29344;4.930427;-1.454614;8.510740;0.077062;-0.121018;-0.078573;0.208008;0.068604;-0.756104;0.954695;-0.056754;-0.265473;0.121904
29345;5.006115;-1.670151;8.539010;0.060178;-0.121131;-0.061037;0.200684;0.072510;-0.759033;0.954517;-0.056012;-0.266390;0.121636
29346;5.105691;-1.900556;8.388152;0.054310;-0.105583;-0.048294;0.206299;0.070312;-0.753418;0.954358;-0.055360;-0.267184;0.121448
29347;5.169551;-1.953850;8.313244;0.050204;-0.076698;-0.046466;0.205566;0.062988;-0.756104;0.954257;-0.054775;-0.267751;0.121252
29348;5.097717;-1.946481;8.246760;0.070037;-0.043251;-0.057837;0.206787;0.072754;-0.754395;0.954252;-0.054040;-0.268037;0.120995
29349;5.082741;-1.752152;8.261581;0.104128;-0.014607;-0.053850;0.199951;0.069336;-0.761719;0.954320;-0.053072;-0.268060;0.120832
29350;5.003033;-1.674726;8.331143;0.144229;0.011199;-0.037150;0.209961;0.066895;-0.760986;0.954446;-0.051848;-0.267830;0.120881
29351;5.003665;-1.368996;8.458324;0.130187;0.039489;-0.013107;0.210938;0.065186;-0.762451;0.954603;-0.050818;-0.267378;0.121076
29352;4.935718;-1.147413;8.569292;0.073084;0.030473;0.002330;0.207764;0.061768;-0.757080;0.954700;-0.050268;-0.267049;0.121270
29353;4.924821;-1.132969;8.571836;-0.001120;-0.019664;0.034521;0.209717;0.058838;-0.757324;0.954621;-0.050327;-0.267180;0.121574
29354;4.770108;-1.640835;8.420608;-0.018750;-0.086541;0.049095;0.210693;0.061279;-0.760254;0.954371;-0.050491;-0.267855;0.121982
29355;4.720133;-1.715977;8.352908;0.015526;-0.151685;0.053820;0.198242;0.054199;-0.756836;0.953985;-0.050326;-0.269010;0.122530
29356;4.899445;-1.533052;8.315256;0.039025;-0.192054;0.072085;0.198242;0.062256;-0.750488;0.953497;-0.049974;-0.270454;0.123294
29357;4.875398;-1.682729;8.215362;0.079653;-0.207636;0.087153;0.204834;0.059570;-0.754395;0.952972;-0.049317;-0.271972;0.124274
29358;4.950535;-1.549481;8.296317;0.089018;-0.215677;0.084456;0.194824;0.060547;-0.758789;0.952431;-0.048571;-0.273545;0.125257
29359;4.903175;-1.736829;8.337515;0.079244;-0.217498;0.050496;0.194092;0.062500;-0.765625;0.951914;-0.047822;-0.275155;0.125948
29360;5.236269;-1.211709;8.363583;0.044048;-0.216055;0.030569;0.186768;0.060303;-0.761475;0.951403;-0.047309;-0.276797;0.126400
29361;5.035776;-1.409605;8.428847;-0.016388;-0.235178;0.019818;0.176514;0.052246;-0.757324;0.950833;-0.047228;-0.278658;0.126632
29362;4.908301;-1.687681;8.451042;-0.094367;-0.279027;0.001760;0.174072;0.064697;-0.764404;0.950145;-0.047677;-0.280955;0.126557
29363;4.858097;-2.167994;8.378044;-0.077707;-0.334384;-0.044181;0.175049;0.063721;-0.763916;0.949375;-0.047827;-0.283688;0.126178
29364;4.527640;-2.856192;8.579759;0.064683;-0.400757;-0.124585;0.171387;0.057129;-0.765137;0.948580;-0.046591;-0.286825;0.125526
29365;3.934790;-2.220905;10.158351;0.196994;-0.741028;-0.269400;0.165039;0.061279;-0.764648;0.947147;-0.043607;-0.292560;0.124177
29366;4.321595;-1.499680;10.668451;0.316969;-1.276505;-0.347246;0.144775;0.049561;-0.775391;0.944450;-0.038928;-0.302398;0.122693
29367;3.740070;-1.232234;11.734569;0.158185;-1.868295;-0.432217;0.121338;0.057373;-0.779053;0.940118;-0.034672;-0.317020;0.120310
29368;3.111051;-2.018127;12.638477;0.242748;-2.806462;-0.613657;0.083252;0.045166;-0.772705;0.933125;-0.028318;-0.338820;0.116950
29369;2.100264;-3.088093;14.196119;0.320511;-4.084513;-0.938566;0.025391;0.045410;-0.784912;0.922022;-0.019170;-0.370243;0.111485
29370;0.111703;-4.360089;14.128558;0.278518;-5.842239;-1.499247;-0.052002;0.044189;-0.789062;0.904289;-0.006949;-0.414580;0.101665
29371;-0.095513;-6.155726;13.335493;0.597782;-7.957541;-2.426238;-0.159912;0.028809;-0.765869;0.876750;0.012689;-0.473074;0.085733
29372;9.991185;-0.768220;14.926633;0.345415;-9.482108;-3.106054;-0.279053;0.013428;-0.722900;0.838597;0.034173;-0.539993;0.063207
29373;24.655434;-4.228981;14.249908;-0.434392;-9.117457;-2.647745;-0.394043;-0.003418;-0.668213;0.796551;0.047747;-0.601349;0.040062
29374;21.766156;-10.615084;15.446594;1.149286;-7.276166;-2.891740;-0.469482;-0.036621;-0.614990;0.758954;0.072191;-0.646694;0.023753
29375;5.138505;-7.178378;18.178951;1.347992;-6.503353;-2.929635;-0.525391;-0.079102;-0.557129;0.722388;0.097665;-0.684502;0.008673
29376;10.980090;-1.259771;17.951455;0.439247;-5.632475;-2.644198;-0.579834;-0.103027;-0.498779;0.689238;0.115685;-0.715181;-0.009171
29377;20.552036;-9.283427;21.032584;-0.852054;-0.847404;-1.699724;-0.571289;-0.115967;-0.489502;0.684905;0.120863;-0.718115;-0.024660
29378;0.768873;-11.201785;13.897875;0.204782;2.054786;-1.043672;-0.543945;-0.130615;-0.502197;0.696809;0.128698;-0.705095;-0.027111
29379;-5.322771;-4.856910;9.481879;0.705863;2.202501;-0.715945;-0.530273;-0.143311;-0.517578;0.708859;0.137491;-0.691385;-0.024517
29380;-1.620860;-1.909823;8.609214;-0.064333;2.217210;-0.058484;-0.506104;-0.130127;-0.540283;0.721751;0.137889;-0.677907;-0.022442
29381;1.668318;-4.223167;7.575356;-0.674047;2.827168;0.716078;-0.467285;-0.128662;-0.554688;0.738585;0.130282;-0.661195;-0.018436
29382;2.726340;-5.696533;6.884585;-0.363437;3.744498;1.272323;-0.430420;-0.120605;-0.578125;0.759578;0.121538;-0.638907;-0.008268
29383;2.620147;-3.858730;6.891722;-0.000934;4.483047;1.664083;-0.379883;-0.104980;-0.604492;0.783126;0.112876;-0.611492;0.007087
29384;2.894824;-2.129119;7.022905;-0.221479;4.908121;2.008066;-0.329102;-0.093994;-0.614990;0.807617;0.100781;-0.580538;0.023965
29385;3.910696;-2.100233;7.412927;-0.609612;5.097682;2.269726;-0.279053;-0.072754;-0.633545;0.831598;0.084545;-0.547384;0.040845
29386;6.620527;-1.902613;8.417330;-0.852005;5.327687;2.437533;-0.224365;-0.050781;-0.657959;0.854788;0.065572;-0.511557;0.057860
29387;8.827177;-1.074543;9.292489;-1.165543;5.681104;2.505570;-0.165283;-0.033447;-0.651611;0.877362;0.043716;-0.472056;0.074076
29388;10.382033;-0.225877;9.914801;-1.523922;5.889746;2.509889;-0.098389;-0.018311;-0.666504;0.898310;0.018947;-0.429881;0.088781
29389;12.026861;-0.303829;9.934799;-1.866012;6.006228;2.379555;-0.030273;0.007080;-0.670898;0.917023;-0.008081;-0.385741;0.101033
29390;12.807119;-2.823866;9.800071;-1.729126;5.958195;2.091625;0.038330;0.025391;-0.662354;0.932987;-0.033095;-0.340691;0.111217
29391;14.134596;-3.563306;10.834205;-1.099510;5.750299;1.955160;0.089111;0.036865;-0.652588;0.945999;-0.052567;-0.295756;0.121867
29392;16.126837;-2.133832;12.102989;-0.827052;5.430730;2.154402;0.142578;0.033447;-0.656494;0.955706;-0.069945;-0.252232;0.134581
29393;19.883978;1.415260;12.283023;-1.458805;5.165957;2.673342;0.214111;0.047607;-0.634033;0.961521;-0.092985;-0.210615;0.149906
29394;22.889652;-0.380500;8.662673;-1.896854;5.051859;2.900237;0.258057;0.052246;-0.619141;0.964025;-0.119551;-0.169769;0.165957
29395;24.200567;0.519426;4.679368;-1.288584;4.669824;2.668171;0.309326;0.051758;-0.600830;0.964605;-0.140095;-0.131007;0.180963
29396;25.283133;2.206669;0.804570;-0.713737;3.875492;2.083829;0.349365;0.035889;-0.579102;0.964160;-0.153934;-0.098247;0.192477
29397;26.159836;5.244767;-3.701430;-0.546124;2.717014;1.221859;0.372803;0.042969;-0.564941;0.963383;-0.163700;-0.075566;0.198458
29398;28.422123;7.175713;-8.033787;-0.959184;1.420050;0.445189;0.379639;0.047119;-0.561523;0.962099;-0.174062;-0.065046;0.199590
29399;27.871933;4.544120;-9.946103;-0.369211;0.128091;-0.190017;0.387207;0.047119;-0.554443;0.961924;-0.177163;-0.064860;0.197760
29400;25.556630;5.429783;-6.361703;0.771610;-1.224871;-0.565874;0.374512;0.041748;-0.556396;0.963240;-0.168656;-0.074232;0.195481
29401;23.478008;5.676528;-0.391577;0.883069;-2.238637;-0.603684;0.347168;0.040039;-0.577881;0.963868;-0.157513;-0.091628;0.194302
29402;-42.554353;-2.058852;52.091552;0.352855;-2.888354;-0.742507;0.326660;0.046875;-0.586426;0.963024;-0.149369;-0.115266;0.192319
29403;-1.878136;0.811148;-9.089022;0.587402;-4.948431;-3.338241;0.267090;0.049316;-0.604980;0.963155;-0.133313;-0.158009;0.172029
29404;40.117805;-8.014933;23.054464;0.414350;-4.017379;-0.845130;0.220215;0.057373;-0.614990;0.958973;-0.123017;-0.190479;0.170165
29405;5.174709;0.942787;10.954540;0.659972;-2.174183;-0.372944;0.199951;0.044678;-0.622559;0.956551;-0.114014;-0.207294;0.170410
29406;6.258216;-1.268556;9.146654;0.305721;-1.809468;-0.518764;0.177490;0.041992;-0.640381;0.954335;-0.108059;-0.221779;0.168472
29407;7.601158;-4.854312;8.633227;0.283639;-1.490471;-0.422566;0.164551;0.041748;-0.641846;0.952349;-0.102880;-0.233627;0.166929
29408;5.644577;-2.879733;8.896217;0.413505;-1.058569;-0.399555;0.145020;0.044678;-0.637695;0.951150;-0.097305;-0.241822;0.165429
29409;6.782275;-3.964455;8.123546;0.620183;-0.722577;-0.457218;0.135986;0.037354;-0.645996;0.950790;-0.090429;-0.247096;0.163601
29410;6.409964;-0.375668;9.582738;0.510401;-0.438342;-0.376704;0.140137;0.026855;-0.640869;0.950763;-0.084973;-0.250196;0.161963
29411;5.268451;-1.901082;8.852138;0.316401;-0.245819;-0.256035;0.140869;0.029785;-0.640381;0.950810;-0.081560;-0.251941;0.160729
29412;5.135265;-1.472667;8.859162;0.213726;-0.146344;-0.168550;0.139160;0.021729;-0.648438;0.950868;-0.079275;-0.252974;0.159902
29413;4.668351;-2.112013;8.569844;0.159592;-0.122572;-0.105257;0.136719;0.022217;-0.639648;0.950852;-0.077583;-0.253848;0.159445
29414;4.608469;-2.598659;8.327479;0.160398;-0.139989;-0.090557;0.133789;0.016357;-0.641113;0.950776;-0.075892;-0.254848;0.159116
29415;4.782302;-2.460351;8.294230;0.216020;-0.123759;-0.124254;0.135254;0.010986;-0.636719;0.950809;-0.073710;-0.255666;0.158629
29416;5.114029;-1.722271;8.560005;0.232018;-0.082416;-0.134153;0.135498;0.017334;-0.643799;0.950948;-0.071436;-0.256141;0.158072
29417;4.906150;-1.952828;8.455301;0.209018;-0.036505;-0.092929;0.135986;0.011230;-0.639404;0.951112;-0.069491;-0.256256;0.157764
29418;4.923277;-1.805232;8.540099;0.221560;-0.009925;-0.052330;0.130859;0.016602;-0.646484;0.951283;-0.067568;-0.256121;0.157789
29419;4.902485;-1.791064;8.541171;0.186707;-0.006902;-0.014524;0.126709;0.006104;-0.636230;0.951388;-0.066006;-0.255985;0.158037
29420;4.767667;-1.956759;8.461102;0.160071;-0.009345;-0.003028;0.137451;0.002197;-0.640869;0.951456;-0.064675;-0.255897;0.158319
29421;4.717594;-2.025035;8.417681;0.160244;-0.010880;-0.009210;0.129639;0.005615;-0.643311;0.951527;-0.063328;-0.255823;0.158555
29422;4.792080;-1.748164;8.496557;0.156048;-0.029762;-0.014944;0.135498;0.013428;-0.638428;0.951562;-0.061977;-0.255908;0.158745
29423;4.691112;-1.656586;8.590819;0.113391;-0.079401;-0.015931;0.127197;0.003174;-0.638428;0.951468;-0.060897;-0.256442;0.158863
29424;4.718912;-1.747278;8.449969;0.079118;-0.134834;-0.020553;0.120605;0.006592;-0.642090;0.951243;-0.060005;-0.257464;0.158898
29425;4.687424;-1.920520;8.393497;0.077054;-0.161490;-0.042262;0.124268;0.001221;-0.645020;0.950986;-0.059047;-0.258709;0.158770
29426;4.625362;-2.131562;8.298103;0.106156;-0.188215;-0.095992;0.128418;0.005371;-0.641846;0.950754;-0.057707;-0.260153;0.158292
29427;4.620396;-2.035561;8.400511;0.112405;-0.191816;-0.170698;0.113525;0.005615;-0.645264;0.950611;-0.056152;-0.261652;0.157238
29428;4.687407;-1.826857;8.475012;0.033659;-0.238404;-0.229181;0.118164;-0.000244;-0.641602;0.950399;-0.055031;-0.263648;0.155570
29429;4.683600;-1.669821;8.562688;-0.000606;-0.298008;-0.245337;0.118896;0.006836;-0.644531;0.950053;-0.054069;-0.266166;0.153726
29430;4.743039;-1.621198;8.599039;-0.040400;-0.399070;-0.258327;0.109375;0.002930;-0.640381;0.949468;-0.053263;-0.269536;0.151734
29431;4.816400;-1.193342;8.715147;-0.096188;-0.506337;-0.227041;0.096680;0.003174;-0.641113;0.948560;-0.052833;-0.273805;0.149909
29432;4.164531;-0.957775;9.805396;-0.226246;-0.755338;-0.157067;0.092773;0.011963;-0.647705;0.946908;-0.053276;-0.280164;0.148444
29433;3.704069;-1.973047;10.127417;-0.348661;-1.155997;-0.196624;0.079590;0.012207;-0.650146;0.944244;-0.054093;-0.289830;0.146547
29434;3.417307;-2.379900;10.634633;-0.248538;-1.728266;-0.284847;0.067139;0.016846;-0.659424;0.940200;-0.053203;-0.303864;0.144434
29435;3.261212;-1.738685;11.320921;-0.174663;-2.479617;-0.351487;0.037598;0.015869;-0.659668;0.934058;-0.050645;-0.323619;0.142273
29436;2.698643;-1.499965;12.398654;-0.212167;-3.469586;-0.426886;-0.002197;0.017090;-0.665527;0.924719;-0.046971;-0.350938;0.139752
29437;1.500688;-2.460653;12.602805;-0.226338;-4.847144;-0.549429;-0.064209;0.021484;-0.660156;0.910334;-0.041388;-0.388480;0.136611
29438;0.195404;-6.352725;12.749679;-0.027461;-6.663298;-1.075515;-0.151123;0.019287;-0.647217;0.888553;-0.030433;-0.438790;0.130427
29439;3.367584;-8.232726;11.699278;0.383650;-8.352739;-2.178772;-0.233887;0.021484;-0.626953;0.858207;-0.010455;-0.499570;0.117481
29440;13.352958;-4.892315;11.434340;0.451999;-9.228563;-3.079927;-0.330322;-0.014648;-0.577148;0.820070;0.014665;-0.563655;0.097788
29441;24.918497;-3.132810;12.018909;0.307479;-8.371612;-3.108376;-0.408203;-0.031982;-0.528564;0.781024;0.038147;-0.618593;0.076737
29442;19.139671;-6.286605;12.884102;0.424552;-7.191803;-2.859837;-0.470703;-0.060547;-0.476318;0.744065;0.060177;-0.662867;0.057906
29443;13.057470;-5.659824;13.070549;0.323326;-6.592105;-2.734107;-0.528564;-0.088379;-0.420654;0.707548;0.080365;-0.700975;0.039385
29444;8.249122;-1.098498;15.283529;-0.991023;-5.850135;-2.018443;-0.564941;-0.105469;-0.372803;0.673806;0.088136;-0.733417;0.017795
29445;18.430423;-2.835282;15.884449;-2.459704;-3.410249;-2.104791;-0.578613;-0.114258;-0.341309;0.654647;0.087641;-0.750749;-0.011498
29446;11.659911;-12.175124;12.939307;-1.280528;0.898963;-1.874815;-0.582764;-0.129395;-0.360352;0.660993;0.092461;-0.744109;-0.028994
29447;1.148961;-7.108393;9.511956;0.245617;2.733501;-1.653066;-0.563965;-0.146240;-0.374268;0.677237;0.104692;-0.727469;-0.034346
29448;-1.796424;-3.040337;6.838258;0.449440;2.944757;-1.324471;-0.541992;-0.162598;-0.399658;0.694196;0.116055;-0.709436;-0.036389
29449;-1.493313;-1.686307;5.652840;-0.142012;2.930835;-0.749988;-0.520264;-0.182861;-0.430176;0.711345;0.120509;-0.691358;-0.038593
29450;-0.067986;-3.069980;4.834970;-0.596641;3.009792;-0.062376;-0.507568;-0.176514;-0.456055;0.729168;0.118245;-0.672898;-0.039236
29451;1.533840;-4.657765;4.753816;-0.415199;3.395406;0.617553;-0.483154;-0.166992;-0.473633;0.748649;0.113300;-0.652311;-0.034315
29452;2.509922;-3.994819;5.428750;-0.004304;3.972377;1.274845;-0.451172;-0.154541;-0.503174;0.770291;0.107386;-0.628184;-0.022472
29453;2.822562;-2.550310;6.114182;-0.002698;4.470006;1.896577;-0.424072;-0.153320;-0.532959;0.793545;0.098161;-0.600511;-0.006145
29454;3.513883;-2.374916;6.318319;-0.242778;4.823497;2.383999;-0.387451;-0.136719;-0.567139;0.817325;0.084742;-0.569774;0.012509
29455;4.568425;-2.721921;6.748651;-0.325397;5.093607;2.664202;-0.342529;-0.122070;-0.585693;0.840633;0.069213;-0.536159;0.032849
29456;6.167749;-2.296378;7.861675;-0.322170;5.386636;2.780330;-0.306396;-0.111084;-0.613281;0.863152;0.052931;-0.499239;0.054111
29457;7.566846;-1.294259;9.315682;-0.484191;5.673044;2.787279;-0.262207;-0.094238;-0.645752;0.884596;0.035178;-0.458985;0.074736
29458;9.181317;-0.690828;10.515844;-0.881305;5.937399;2.679204;-0.208740;-0.083496;-0.667480;0.904646;0.014637;-0.415656;0.092908
29459;10.496115;-2.605941;11.397049;-1.219240;6.107938;2.387745;-0.150879;-0.068115;-0.701904;0.922768;-0.007625;-0.369992;0.107451
29460;13.230823;-6.033494;12.369618;-0.853966;6.120328;2.118224;-0.092285;-0.066162;-0.718262;0.938371;-0.026249;-0.322796;0.120722
29461;17.538275;-6.628055;13.879120;-0.034112;6.050872;2.271052;-0.024658;-0.064941;-0.740723;0.951029;-0.038742;-0.274337;0.137052
29462;22.207492;0.455094;15.145922;-0.241513;5.947931;3.161138;0.051758;-0.063477;-0.741943;0.959454;-0.054686;-0.225821;0.159568
29463;25.508477;3.112830;12.404067;-1.941468;5.615716;4.137709;0.108643;-0.049805;-0.757324;0.961891;-0.085415;-0.181028;0.186278
29464;27.613271;-2.121009;5.824404;-1.966495;5.123946;3.802789;0.181396;-0.038330;-0.745361;0.960821;-0.114775;-0.139869;0.209967
29465;27.923782;3.127767;0.918658;-0.903799;4.376795;2.380643;0.237549;-0.037598;-0.746582;0.960023;-0.132383;-0.103886;0.223694
29466;27.870479;6.071793;-6.617941;-1.312780;3.331485;0.696753;0.267090;-0.026855;-0.727051;0.959703;-0.149665;-0.078784;0.224420
29467;26.773111;6.241513;-11.863525;-1.296343;1.673873;-0.988628;0.298096;-0.007568;-0.726562;0.960844;-0.162496;-0.069003;0.213571
29468;26.560281;5.233682;-11.383720;-0.852141;0.050581;-1.801886;0.297119;0.010986;-0.732422;0.962791;-0.168346;-0.072553;0.198568
29469;15.033176;-10.299748;-4.852894;1.877814;-1.452042;-1.694211;0.286377;0.002441;-0.744629;0.967066;-0.149788;-0.083505;0.188080
29470;-23.447244;-2.047447;26.997399;4.743853;-3.818241;-1.644701;0.229736;-0.058105;-0.770996;0.971562;-0.104239;-0.108853;0.182629
29471;16.462768;18.887990;10.218373;1.414170;-6.000954;-0.137964;0.152344;-0.072754;-0.773926;0.966269;-0.083398;-0.155279;0.187772
29472;23.393393;9.256969;18.882467;-0.662476;-3.840598;-0.228856;0.100098;-0.074463;-0.785400;0.960685;-0.082339;-0.187362;0.187615
29473;11.967003;-5.111218;11.706335;-0.756438;-2.198788;-0.594942;0.065430;-0.064453;-0.792725;0.957473;-0.083942;-0.206589;0.183086
29474;4.228730;-6.244163;7.290441;-0.188697;-1.777477;0.037314;0.045654;-0.056152;-0.794922;0.954115;-0.082724;-0.221093;0.184224
29475;4.557493;-2.527234;7.907451;0.021612;-1.768005;-0.283161;0.020020;-0.064209;-0.800049;0.951195;-0.079247;-0.235374;0.183158
29476;8.108147;-5.218821;8.338536;0.287942;-1.389201;-0.418611;0.008057;-0.061035;-0.801270;0.949219;-0.073958;-0.246292;0.181256
29477;8.419834;-1.132889;9.351849;0.418089;-0.648632;-0.326114;-0.009766;-0.067871;-0.794189;0.948604;-0.068945;-0.251080;0.179880
29478;4.919070;-1.478677;8.830218;0.288333;-0.535820;-0.345332;-0.015137;-0.086914;-0.794922;0.948137;-0.065080;-0.255175;0.178006
29479;6.052797;-0.784064;9.112960;0.215732;-0.395423;-0.236958;-0.021240;-0.082520;-0.795410;0.947743;-0.062226;-0.258203;0.176752
29480;5.995727;-0.995078;8.831271;0.064193;-0.240695;-0.127315;-0.016602;-0.079102;-0.797607;0.947431;-0.061029;-0.260173;0.175955
29481;5.309230;-1.994046;8.405274;0.012049;-0.136550;-0.062513;-0.023682;-0.074707;-0.794189;0.947219;-0.060535;-0.261363;0.175501
29482;5.074572;-2.345062;8.286405;0.016152;-0.090194;-0.051311;-0.024170;-0.076416;-0.798828;0.947093;-0.060101;-0.262176;0.175121
29483;4.862069;-2.524865;8.154362;0.051542;-0.074214;-0.074266;-0.021484;-0.075439;-0.798340;0.947051;-0.059361;-0.262822;0.174630
29484;4.786095;-2.259643;8.274963;0.085124;-0.071178;-0.115762;-0.025635;-0.084717;-0.795898;0.947091;-0.058271;-0.263415;0.173884
29485;4.958430;-2.094566;8.240125;0.111141;-0.073161;-0.150261;-0.035645;-0.076904;-0.795654;0.947186;-0.056897;-0.264002;0.172926
29486;4.924722;-1.899379;8.231769;0.118179;-0.071156;-0.155206;-0.031494;-0.081787;-0.790771;0.947294;-0.055460;-0.264565;0.171943
29487;4.865934;-1.575412;8.359311;0.110026;-0.085313;-0.107776;-0.033447;-0.092285;-0.794922;0.947295;-0.054172;-0.265227;0.171324
29488;4.955437;-1.460362;8.489226;0.076152;-0.090353;-0.038599;-0.036377;-0.083984;-0.800049;0.947170;-0.053296;-0.265946;0.171179
29489;4.864899;-1.599778;8.428844;0.004523;-0.095986;0.004651;-0.026367;-0.082764;-0.798096;0.946937;-0.053073;-0.266791;0.171218
29490;4.962542;-1.675046;8.323458;-0.048939;-0.094438;0.011167;-0.038574;-0.075928;-0.803467;0.946675;-0.053288;-0.267696;0.171190
29491;5.017927;-1.743255;8.307230;-0.086286;-0.072519;0.008699;-0.036133;-0.082031;-0.799805;0.946448;-0.053824;-0.268481;0.171049
29492;5.055789;-1.700252;8.308065;-0.119546;-0.056860;0.007745;-0.041504;-0.082764;-0.791992;0.946241;-0.054643;-0.269191;0.170819
29493;5.077462;-1.762581;8.293753;-0.141361;-0.047267;0.011208;-0.039795;-0.080566;-0.796143;0.946039;-0.055654;-0.269853;0.170564
29494;5.092075;-1.795371;8.284081;-0.157292;-0.039600;0.002090;-0.030029;-0.076172;-0.802246;0.945859;-0.056782;-0.270480;0.170197
29495;5.056609;-1.876287;8.222083;-0.153897;-0.023891;-0.009958;-0.037598;-0.080322;-0.796631;0.945732;-0.057878;-0.270983;0.169735
29496;5.195548;-1.905830;8.216130;-0.157655;-0.033688;-0.005427;-0.037109;-0.074219;-0.789307;0.945572;-0.059000;-0.271566;0.169305
29497;5.104800;-2.019272;8.205417;-0.160203;-0.053525;0.001305;-0.038818;-0.077148;-0.804443;0.945355;-0.060129;-0.272305;0.168932
29498;5.040836;-1.885778;8.278636;-0.160208;-0.059569;-0.000118;-0.039551;-0.074951;-0.794434;0.945125;-0.061246;-0.273091;0.168551
29499;4.932610;-2.013069;8.351339;-0.188551;-0.093429;-0.003019;-0.041504;-0.073242;-0.795166;0.944805;-0.062533;-0.274183;0.168100
29500;5.008325;-2.128670;8.247002;-0.208993;-0.129018;-0.019620;-0.038574;-0.069580;-0.802246;0.944412;-0.063892;-0.275591;0.167489
29501;4.844928;-2.208817;8.379506;-0.215078;-0.152222;-0.036603;-0.040283;-0.059570;-0.797852;0.943983;-0.065229;-0.277197;0.166743
29502;4.685992;-1.857025;8.866153;-0.263155;-0.263981;-0.046476;-0.053955;-0.058105;-0.796875;0.943276;-0.066765;-0.279751;0.165868
29503;4.636728;-2.176451;8.852812;-0.240925;-0.430768;-0.075129;-0.055664;-0.052246;-0.796387;0.942219;-0.067828;-0.283596;0.164911
29504;4.085617;-2.225381;9.887392;-0.200734;-0.707576;-0.123168;-0.058350;-0.049805;-0.794922;0.940571;-0.068081;-0.289576;0.163823
29505;3.590824;-2.471777;10.783270;-0.451749;-1.227455;-0.245483;-0.075684;-0.050293;-0.799805;0.937616;-0.069291;-0.300014;0.161453
29506;3.519825;-3.125477;11.045625;-0.619458;-1.869142;-0.336041;-0.104980;-0.037109;-0.800049;0.932894;-0.070709;-0.315677;0.158295
29507;2.696253;-4.080941;11.886315;-0.194612;-2.834993;-0.505821;-0.134033;-0.035889;-0.791016;0.925705;-0.067076;-0.338245;0.155438
29508;2.028571;-3.567152;12.185522;-0.129268;-3.989648;-0.755516;-0.199707;-0.037598;-0.778564;0.914823;-0.060686;-0.369470;0.151353
29509;1.956071;-6.453793;11.533737;0.162595;-5.284118;-1.263840;-0.256348;-0.043213;-0.765869;0.899283;-0.048784;-0.409840;0.144709
29510;3.374165;-5.867305;10.786400;0.657889;-6.585175;-1.958672;-0.343262;-0.059326;-0.733887;0.877933;-0.029112;-0.458522;0.134701
29511;11.685887;-4.757994;11.522915;0.539843;-7.203578;-2.399157;-0.426025;-0.087891;-0.683105;0.851470;-0.007830;-0.510266;0.120685
29512;15.533712;-2.972099;12.733376;0.480651;-6.779214;-2.771320;-0.507812;-0.113770;-0.632324;0.823874;0.014215;-0.557100;0.103287
29513;14.080924;-5.467160;11.723155;-0.618913;-6.557358;-2.846857;-0.567627;-0.137695;-0.583008;0.794491;0.028822;-0.601304;0.079918
29514;17.651059;-2.897153;11.553667;-1.253866;-5.371968;-2.685917;-0.612793;-0.150391;-0.532471;0.768632;0.037539;-0.636261;0.054476
29515;10.205008;-4.338884;12.423567;-2.156272;-4.217996;-2.236136;-0.653076;-0.161133;-0.504150;0.747236;0.037484;-0.662936;0.027370
29516;11.415935;-8.821204;15.184145;-1.456834;-1.184178;-2.724392;-0.646240;-0.163574;-0.504639;0.741504;0.043733;-0.669519;0.002002
