// Start Time: Unknown
// Update Rate: 60.0Hz
// Filter Profile: human (46.1)
// Firmware Version: 4.4.0
PacketCounter;Acc_X;Acc_Y;Acc_Z;Gyr_X;Gyr_Y;Gyr_Z;Mag_X;Mag_Y;Mag_Z;Quat_q0;Quat_q1;Quat_q2;Quat_q3
28597;-0.068846;9.678426;1.369851;0.018186;0.001312;-0.009010;0.387939;-0.629150;-0.409912;0.706964;0.615462;-0.225971;-0.265227
28598;-0.063052;9.758737;1.304021;0.008013;0.003349;-0.007283;0.386719;-0.629150;-0.409424;0.706913;0.615531;-0.225932;-0.265238
28599;-0.010200;9.709124;1.349971;-0.055798;0.002092;-0.004495;0.383057;-0.627686;-0.405029;0.707193;0.615215;-0.225775;-0.265358
28600;-0.066062;9.613048;1.348982;-0.064194;0.024837;-0.013144;0.389404;-0.628418;-0.401367;0.707539;0.614916;-0.225420;-0.265428
28601;-0.164014;9.597664;1.402346;0.002621;0.011153;-0.018690;0.388672;-0.615967;-0.414551;0.707505;0.614992;-0.225265;-0.265475
28602;-0.091045;9.728778;1.344585;0.018937;-0.016675;-0.012614;0.385742;-0.625977;-0.406494;0.707348;0.615091;-0.225339;-0.265601
28603;-0.053532;9.760915;1.343494;-0.032011;-0.002085;-0.009258;0.387451;-0.628662;-0.408203;0.707486;0.614918;-0.225232;-0.265727
28604;-0.088967;9.643428;1.389115;-0.093027;0.005213;-0.009286;0.385010;-0.616455;-0.409180;0.707947;0.614403;-0.224948;-0.265929
28605;-0.105746;9.579170;1.388594;-0.062930;-0.003704;-0.013079;0.382080;-0.630615;-0.405029;0.708230;0.614052;-0.224763;-0.266143
28606;-0.106781;9.673235;1.432719;-0.000941;-0.007570;-0.007830;0.376465;-0.632568;-0.409912;0.708198;0.614050;-0.224765;-0.266231
28607;-0.066668;9.702795;1.409254;0.012478;-0.014498;0.001426;0.385742;-0.628174;-0.415283;0.708106;0.614094;-0.224883;-0.266275
28608;-0.076479;9.714956;1.396320;-0.011807;-0.002397;0.007653;0.391602;-0.625732;-0.407959;0.708175;0.614009;-0.224908;-0.266266
28609;-0.099512;9.649927;1.374703;-0.015738;-0.012062;0.009990;0.385010;-0.626465;-0.408936;0.708249;0.613877;-0.224996;-0.266298
28610;-0.052485;9.583367;1.411993;-0.035553;-0.014488;0.006935;0.389648;-0.625488;-0.412598;0.708412;0.613631;-0.225037;-0.266398
28611;-0.083493;9.570111;1.447086;-0.012859;-0.007040;-0.000390;0.378418;-0.618896;-0.410400;0.708457;0.613548;-0.225050;-0.266460
28612;-0.024865;9.645222;1.415188;0.064081;-0.040270;0.004615;0.382812;-0.629150;-0.414795;0.708060;0.613832;-0.225454;-0.266519
28613;-0.009166;9.675076;1.285397;0.077303;-0.025285;0.006134;0.377197;-0.626465;-0.408203;0.707628;0.614223;-0.225812;-0.266462
28614;-0.104978;9.713414;1.275749;0.031997;0.001403;0.001428;0.380127;-0.626221;-0.413818;0.707460;0.614423;-0.225897;-0.266374
28615;-0.116002;9.691272;1.328646;-0.006694;-0.016770;0.000094;0.388916;-0.633301;-0.410645;0.707444;0.614367;-0.225996;-0.266461
28616;-0.024464;9.677222;1.389674;-0.004782;-0.014488;-0.007720;0.379883;-0.631104;-0.410889;0.707399;0.614354;-0.226041;-0.266574
28617;-0.050329;9.745512;1.352632;0.064684;-0.006048;-0.008447;0.385742;-0.632324;-0.407959;0.707014;0.614764;-0.226197;-0.266517
28618;-0.102627;9.861520;1.347422;0.014208;-0.007350;-0.006747;0.392822;-0.635254;-0.410400;0.706887;0.614877;-0.226253;-0.266546
28619;-0.117608;9.772342;1.364865;-0.081809;-0.025143;-0.008801;0.384766;-0.616943;-0.402588;0.707208;0.614400;-0.226183;-0.266853
28620;-0.049444;9.553128;1.385018;-0.120455;-0.031451;-0.020025;0.375977;-0.624512;-0.407471;0.707703;0.613680;-0.225993;-0.267359
28621;-0.036638;9.587657;1.435453;-0.038588;-0.019442;-0.026822;0.379639;-0.626465;-0.413330;0.707777;0.613484;-0.225909;-0.267682
28622;-0.020938;9.664263;1.344135;0.011434;-0.048090;-0.022834;0.388428;-0.622314;-0.408691;0.707554;0.613509;-0.226128;-0.268028
28623;0.068457;9.672992;1.362416;-0.056439;-0.027131;-0.022251;0.386475;-0.617920;-0.406738;0.707723;0.613188;-0.226050;-0.268384
28624;0.015852;9.613239;1.412099;-0.106379;0.016276;-0.025543;0.378418;-0.619141;-0.414795;0.708226;0.612667;-0.225597;-0.268627
28625;-0.031531;9.648986;1.392393;-0.004945;-0.012894;-0.023560;0.383301;-0.615967;-0.412598;0.708161;0.612658;-0.225595;-0.268821
28626;0.061256;9.770562;1.360618;0.001328;-0.028626;-0.012814;0.375977;-0.623535;-0.418457;0.708062;0.612635;-0.225734;-0.269018
28627;0.055401;9.801126;1.385432;-0.104625;0.036786;-0.015156;0.377686;-0.619873;-0.409668;0.708610;0.612135;-0.225297;-0.269080
28628;-0.080953;9.644346;1.437393;-0.118127;0.032793;-0.001776;0.393066;-0.614258;-0.412598;0.709250;0.611535;-0.224900;-0.269090
28629;-0.018251;9.730827;1.513318;-0.015292;-0.014027;0.010964;0.388916;-0.621826;-0.417480;0.709318;0.611424;-0.225006;-0.269075
28630;0.011192;9.715676;1.394513;-0.023994;0.013074;0.007112;0.379150;-0.621582;-0.417236;0.709466;0.611324;-0.224962;-0.268948
28631;-0.009392;9.700601;1.426868;-0.110351;0.050017;0.003657;0.378174;-0.618408;-0.413574;0.710111;0.610785;-0.224534;-0.268828
28632;-0.044912;9.610416;1.474151;-0.101160;0.038974;0.011867;0.393066;-0.617920;-0.406738;0.710707;0.610265;-0.224219;-0.268696
28633;-0.075903;9.595106;1.519506;-0.076811;0.037033;0.008622;0.377686;-0.622070;-0.416016;0.711175;0.609947;-0.223849;-0.268490
28634;-0.089132;9.610782;1.559557;-0.070550;0.035768;0.004369;0.390381;-0.623535;-0.417969;0.711585;0.609615;-0.223612;-0.268355
28635;-0.069123;9.624837;1.572021;-0.096001;0.025201;0.011971;0.384033;-0.615234;-0.423340;0.712129;0.609123;-0.223356;-0.268241
28636;-0.048115;9.701803;1.488100;-0.008764;-0.004783;0.015508;0.376709;-0.620117;-0.419434;0.712197;0.609015;-0.223508;-0.268181
28637;-0.043643;9.696292;1.449540;-0.021786;0.000283;0.007295;0.388672;-0.617676;-0.419189;0.712305;0.608867;-0.223608;-0.268145
28638;0.006598;9.608608;1.453494;-0.115692;-0.000152;0.005771;0.385010;-0.620605;-0.415039;0.712894;0.608198;-0.223402;-0.268269
28639;0.040470;9.604970;1.440385;-0.084823;-0.000656;0.006821;0.385986;-0.614990;-0.420898;0.713315;0.607737;-0.223290;-0.268290
28640;0.038999;9.714275;1.511290;-0.056399;0.020003;0.002252;0.387207;-0.617188;-0.424316;0.713629;0.607467;-0.223092;-0.268232
28641;-0.012764;9.682617;1.556281;-0.108076;0.042757;0.001512;0.385742;-0.619873;-0.426025;0.714240;0.606939;-0.222663;-0.268154
28642;-0.079763;9.575684;1.614775;-0.129428;0.042640;0.004729;0.383301;-0.613770;-0.424316;0.714958;0.606277;-0.222241;-0.268088
28643;-0.076889;9.556533;1.609350;-0.038245;-0.001951;0.007799;0.381104;-0.611816;-0.424805;0.715150;0.606037;-0.222275;-0.268093
28644;-0.009209;9.647952;1.594629;0.011403;-0.007993;0.009028;0.376221;-0.605957;-0.421143;0.715085;0.606061;-0.222466;-0.268054
28645;0.017463;9.736051;1.577141;-0.031455;0.018215;0.013536;0.383301;-0.614502;-0.420898;0.715304;0.605860;-0.222414;-0.267966
28646;-0.086485;9.597834;1.629096;-0.113672;0.036709;0.014909;0.386963;-0.614502;-0.427979;0.715961;0.605274;-0.222059;-0.267833
28647;-0.145194;9.536329;1.691592;-0.112257;0.018859;0.012735;0.381348;-0.624512;-0.429443;0.716576;0.604633;-0.221810;-0.267837
28648;-0.064251;9.491021;1.660257;-0.024947;-0.026897;0.013367;0.390137;-0.610352;-0.422119;0.716643;0.604421;-0.222150;-0.267858
28649;0.028805;9.540504;1.652651;-0.007411;-0.030596;0.012869;0.379150;-0.613281;-0.421143;0.716650;0.604347;-0.222302;-0.267878
28650;0.050425;9.583210;1.629304;-0.006945;-0.025581;0.014295;0.381836;-0.609863;-0.427734;0.716651;0.604254;-0.222562;-0.267870
28651;0.033412;9.606035;1.583312;0.011666;-0.023155;0.016866;0.382812;-0.607422;-0.424072;0.716585;0.604224;-0.222855;-0.267871
28652;-0.000941;9.652697;1.628551;-0.019364;-0.029830;0.012453;0.390137;-0.608398;-0.430420;0.716656;0.604029;-0.223037;-0.267969
28653;-0.004287;9.510581;1.564643;-0.033973;-0.033357;0.007463;0.372803;-0.611084;-0.435547;0.716794;0.603742;-0.223140;-0.268162
28654;0.058739;9.586798;1.675740;0.022064;-0.041373;0.007319;0.385742;-0.614014;-0.432129;0.716616;0.603657;-0.223684;-0.268375
28655;-0.015210;9.638934;1.649063;0.051111;-0.028410;0.004157;0.384766;-0.618408;-0.423584;0.716309;0.603889;-0.224023;-0.268388
28656;0.029997;9.746745;1.644555;0.018772;-0.039530;0.006490;0.382324;-0.617432;-0.423340;0.716130;0.603987;-0.224335;-0.268386
28657;0.057091;9.727243;1.583936;0.002153;-0.035210;0.001718;0.378906;-0.616455;-0.424561;0.716033;0.603991;-0.224577;-0.268436
28658;0.055552;9.731612;1.626484;-0.020362;-0.024878;-0.000247;0.374756;-0.617188;-0.426758;0.716063;0.603856;-0.224743;-0.268518
28659;0.020508;9.654745;1.638849;-0.054280;-0.034164;0.000620;0.385986;-0.615234;-0.427002;0.716246;0.603459;-0.224971;-0.268733
28660;0.093780;9.645611;1.663316;-0.056798;-0.024650;-0.003028;0.379395;-0.607666;-0.427734;0.716466;0.603141;-0.224935;-0.268891
28661;0.054494;9.599747;1.694231;-0.035930;0.004277;-0.001284;0.385254;-0.618164;-0.428955;0.716654;0.602934;-0.224827;-0.268942
28662;0.048444;9.662026;1.730339;0.015740;-0.017932;0.007034;0.385742;-0.607666;-0.431396;0.716537;0.603047;-0.225007;-0.268850
28663;0.103978;9.688137;1.652504;0.047385;-0.022166;0.009951;0.382080;-0.615723;-0.425293;0.716300;0.603259;-0.225226;-0.268822
28664;0.086995;9.645433;1.675702;-0.031066;-0.001014;0.006083;0.383057;-0.614258;-0.427979;0.716449;0.603132;-0.225193;-0.268741
28665;0.061123;9.501357;1.612857;-0.050289;-0.010280;0.004282;0.383057;-0.615723;-0.428711;0.716684;0.602846;-0.225154;-0.268787
28666;0.123435;9.576912;1.726323;0.006566;-0.008465;0.003976;0.377441;-0.607666;-0.431152;0.716630;0.602912;-0.225245;-0.268706
28667;0.111348;9.631448;1.684568;0.040992;0.004868;0.004575;0.378418;-0.612793;-0.429932;0.716458;0.603104;-0.225386;-0.268614
28668;0.102164;9.629967;1.671081;-0.007131;0.011052;0.004899;0.383301;-0.609863;-0.422607;0.716525;0.603061;-0.225398;-0.268523
28669;0.062297;9.623633;1.653197;-0.051146;0.022073;0.003301;0.382324;-0.611328;-0.427490;0.716828;0.602885;-0.225073;-0.268382
28670;0.042803;9.567188;1.706950;-0.037057;0.013730;-0.006422;0.383545;-0.614990;-0.427246;0.717026;0.602741;-0.224852;-0.268361
28671;0.025991;9.624938;1.713669;-0.006657;0.013012;-0.009171;0.381348;-0.617188;-0.426758;0.717051;0.602814;-0.224700;-0.268260
28672;0.042643;9.680610;1.664623;0.036574;-0.001472;-0.014881;0.376953;-0.617920;-0.432129;0.716805;0.603120;-0.224761;-0.268176
28673;0.093830;9.669455;1.656441;-0.010428;-0.007893;-0.012155;0.382568;-0.613770;-0.435791;0.716798;0.603028;-0.224901;-0.268287
28674;0.110583;9.660298;1.704701;-0.044904;0.026665;-0.016125;0.379395;-0.609619;-0.430908;0.717054;0.602796;-0.224623;-0.268357
28675;0.053672;9.601934;1.630048;-0.026928;0.032099;-0.012578;0.378662;-0.609863;-0.432861;0.717231;0.602693;-0.224364;-0.268330
28676;0.054671;9.651292;1.680397;-0.013838;0.029224;-0.014434;0.373779;-0.611816;-0.433594;0.717335;0.602638;-0.224182;-0.268328
28677;0.095212;9.612622;1.711668;-0.032099;0.036255;-0.007949;0.384033;-0.617432;-0.422119;0.717548;0.602442;-0.224066;-0.268296
28678;0.087744;9.659522;1.753839;-0.040479;0.046582;0.001405;0.385742;-0.608398;-0.424805;0.717804;0.602447;-0.223681;-0.267922
28679;0.106600;9.699366;1.714694;-0.029129;0.068696;0.006349;0.382080;-0.610596;-0.424561;0.718095;0.602491;-0.223138;-0.267497
28680;0.143793;9.772244;1.693308;-0.029593;0.104285;0.024686;0.380859;-0.609619;-0.437256;0.718480;0.602557;-0.222574;-0.266782
28681;0.118226;9.763055;1.647759;-0.060472;0.125388;0.039863;0.385010;-0.609863;-0.430420;0.719131;0.602272;-0.222031;-0.266122
28682;0.032766;9.681060;1.678498;-0.159148;0.140337;0.038900;0.385010;-0.611084;-0.434814;0.720284;0.601546;-0.221050;-0.265462
28683;-0.102296;9.496010;1.781125;-0.232066;0.152791;0.025355;0.385742;-0.602295;-0.434570;0.721793;0.600393;-0.219826;-0.264990
28684;-0.072612;9.346366;1.828120;-0.161665;0.102606;0.007049;0.389404;-0.608154;-0.425537;0.722836;0.599568;-0.218888;-0.264793
28685;0.031212;9.360388;1.785146;-0.011813;0.054944;-0.010796;0.383301;-0.610840;-0.425781;0.722951;0.599758;-0.218390;-0.264457
28686;0.033798;9.430737;1.748991;-0.004119;0.077609;-0.025874;0.384766;-0.609619;-0.434326;0.723021;0.600030;-0.217851;-0.264092
28687;-0.105058;9.562607;1.845544;-0.049107;0.099554;-0.037885;0.396729;-0.612061;-0.430420;0.723361;0.599981;-0.217081;-0.263910
28688;-0.155423;9.705908;1.841916;0.013438;0.055777;-0.034927;0.394287;-0.603027;-0.435547;0.723302;0.600347;-0.216514;-0.263704
28689;-0.164509;9.734785;1.839482;-0.020473;0.028726;-0.035300;0.393555;-0.598389;-0.425049;0.723410;0.600311;-0.216059;-0.263861
28690;-0.149514;9.666452;1.924851;-0.166591;0.031400;-0.028177;0.389648;-0.600342;-0.435547;0.724249;0.599494;-0.215197;-0.264122
28691;-0.157708;9.491955;1.883332;-0.169754;0.016161;-0.034874;0.397461;-0.604980;-0.434082;0.725075;0.598501;-0.214574;-0.264615
28692;-0.154657;9.278647;1.871382;-0.100119;-0.000178;-0.035255;0.388428;-0.605225;-0.431152;0.725492;0.598014;-0.214097;-0.264958
28693;-0.103655;9.462149;1.918239;0.018776;-0.026368;-0.022017;0.382812;-0.601807;-0.434814;0.725273;0.598153;-0.214262;-0.265112
28694;-0.020675;9.748337;1.862836;0.187727;-0.053350;-0.005800;0.394043;-0.600098;-0.434326;0.724221;0.599118;-0.215143;-0.265095
28695;0.075966;9.809822;1.749598;0.078045;-0.037450;0.002657;0.391113;-0.603760;-0.435791;0.723787;0.599496;-0.215489;-0.265143
28696;0.063182;9.666204;1.804524;-0.093697;0.048103;0.000545;0.387695;-0.605225;-0.436035;0.724352;0.599003;-0.215024;-0.265092
28697;-0.062594;9.482991;1.875516;-0.061534;0.026278;0.001676;0.391357;-0.599121;-0.437988;0.724708;0.598644;-0.214852;-0.265070
28698;-0.076363;9.552151;1.836902;0.063215;-0.010746;-0.004221;0.391602;-0.604736;-0.436768;0.724390;0.598944;-0.215047;-0.265103
28699;-0.034485;9.660397;1.834188;0.024050;0.006630;-0.011292;0.403564;-0.607178;-0.429443;0.724261;0.599096;-0.215049;-0.265111
28700;-0.045563;9.602843;1.876504;-0.107211;0.029179;-0.015809;0.383545;-0.606689;-0.432861;0.724783;0.598689;-0.214373;-0.265152
28701;-0.135991;9.493049;1.925738;-0.087535;0.027920;-0.010315;0.385010;-0.610596;-0.427734;0.725223;0.598224;-0.214147;-0.265183
28702;-0.223758;9.529070;1.919741;0.037082;-0.019675;-0.014518;0.394531;-0.601562;-0.427002;0.724911;0.598518;-0.214431;-0.265141
28703;-0.125264;9.622654;1.870574;0.055507;-0.055488;-0.014300;0.396973;-0.603271;-0.431396;0.724482;0.598867;-0.214713;-0.265297
28704;-0.083793;9.717837;1.891916;0.007546;-0.038983;-0.016085;0.385010;-0.592285;-0.435547;0.724329;0.598929;-0.214785;-0.265516
28705;-0.074506;9.598968;1.885886;-0.052217;-0.037136;-0.013556;0.398438;-0.607910;-0.437256;0.724530;0.598446;-0.214877;-0.265983
28706;0.011142;9.468262;1.858365;-0.032109;-0.041228;-0.007089;0.387695;-0.604492;-0.436035;0.724588;0.598220;-0.214975;-0.266252
28707;-0.022195;9.586864;1.885303;0.057330;-0.016189;-0.012543;0.400635;-0.605225;-0.433105;0.724233;0.598538;-0.215240;-0.266291
28708;-0.086839;9.637440;1.828449;0.018180;-0.017023;-0.012589;0.397949;-0.605469;-0.437500;0.724068;0.598733;-0.215181;-0.266350
28709;-0.032110;9.556311;1.875509;-0.074638;-0.023724;-0.009889;0.387207;-0.605957;-0.439209;0.724375;0.598275;-0.215051;-0.266649
28710;-0.037018;9.492596;1.859518;-0.053826;-0.000975;-0.013151;0.385254;-0.596680;-0.432617;0.724605;0.597926;-0.215013;-0.266836
28711;-0.050495;9.571896;1.937609;0.023187;-0.007877;-0.009152;0.386475;-0.601074;-0.434326;0.724455;0.598053;-0.215116;-0.266878
28712;-0.068076;9.645197;1.937694;0.012258;-0.005861;-0.004219;0.390625;-0.595703;-0.437256;0.724365;0.598113;-0.215236;-0.266890
28713;-0.113120;9.579496;1.911347;-0.045691;0.001840;-0.001667;0.388672;-0.600830;-0.436279;0.724616;0.597801;-0.215094;-0.267021
28714;-0.125995;9.474525;1.926325;-0.043309;-0.017851;-0.004312;0.395020;-0.601807;-0.434570;0.724788;0.597494;-0.215134;-0.267207
28715;-0.076945;9.480990;1.963084;0.013447;-0.033461;-0.007918;0.390625;-0.601807;-0.435059;0.724631;0.597576;-0.215263;-0.267348
28716;-0.109031;9.545911;1.877689;0.045987;-0.025320;-0.014682;0.387939;-0.599609;-0.435791;0.724313;0.597850;-0.215456;-0.267443
28717;-0.076014;9.584412;1.936201;-0.003699;-0.020333;-0.011102;0.389648;-0.595215;-0.430420;0.724270;0.597789;-0.215556;-0.267614
28718;-0.120312;9.610349;1.929054;0.026075;-0.021415;-0.007482;0.394287;-0.602783;-0.435791;0.724083;0.597958;-0.215639;-0.267675
28719;-0.035215;9.642442;1.863318;0.058374;-0.056598;-0.001771;0.381104;-0.603271;-0.435547;0.723679;0.598227;-0.216060;-0.267829
28720;-0.018808;9.597575;1.834250;-0.022091;-0.041365;-0.011731;0.387939;-0.596680;-0.434326;0.723672;0.597981;-0.216381;-0.268136
28721;-0.078831;9.521833;1.884940;-0.062934;-0.012904;-0.011858;0.392334;-0.603760;-0.434570;0.723943;0.597591;-0.216247;-0.268382
28722;-0.086404;9.477216;1.903549;0.000567;-0.054958;-0.001798;0.389160;-0.604736;-0.437500;0.723817;0.597539;-0.216545;-0.268598
28723;0.015770;9.649861;1.895669;0.133586;-0.063185;0.007512;0.389404;-0.605713;-0.432129;0.723038;0.598207;-0.217311;-0.268591
28724;0.042702;9.808237;1.769138;0.123722;-0.047239;0.000441;0.395996;-0.593994;-0.431885;0.722306;0.598920;-0.217879;-0.268509
28725;0.081904;9.723532;1.764543;-0.069614;-0.012519;-0.003375;0.386719;-0.604492;-0.442383;0.722649;0.598534;-0.217563;-0.268704
28726;-0.032148;9.408061;1.853730;-0.146759;0.029725;-0.005341;0.381592;-0.593994;-0.436523;0.723432;0.597654;-0.217134;-0.268902
28727;-0.103734;9.439183;1.958253;0.044076;-0.009514;0.004561;0.393799;-0.599854;-0.427734;0.723220;0.597829;-0.217385;-0.268882
28728;-0.055164;9.689712;1.859983;0.173598;-0.059280;0.009773;0.383545;-0.596924;-0.430664;0.722247;0.598864;-0.218024;-0.268675
28729;0.061830;9.739378;1.775643;0.011569;-0.018150;0.003630;0.377686;-0.600098;-0.434814;0.722162;0.598893;-0.218192;-0.268704
28730;-0.024887;9.603538;1.843022;-0.124003;0.034752;-0.012231;0.385742;-0.611084;-0.429688;0.722809;0.598179;-0.217816;-0.268861
28731;-0.102408;9.440907;1.949999;-0.060459;0.000025;-0.009552;0.384277;-0.605713;-0.437012;0.723032;0.597941;-0.217712;-0.268873
28732;-0.037279;9.533613;1.934952;0.073346;-0.025107;-0.004560;0.385498;-0.612549;-0.435303;0.722589;0.598330;-0.218122;-0.268867
28733;-0.048303;9.706984;1.864580;0.087215;-0.011843;-0.000808;0.390137;-0.604492;-0.430420;0.722087;0.598873;-0.218515;-0.268687
28734;-0.023619;9.678770;1.843118;-0.027021;-0.014304;0.000307;0.385010;-0.601074;-0.428955;0.722180;0.598763;-0.218484;-0.268707
28735;-0.064157;9.553603;1.829043;-0.084160;0.007501;-0.006926;0.389648;-0.606934;-0.441895;0.722582;0.598344;-0.218209;-0.268783
28736;-0.093981;9.481131;1.893873;-0.021898;-0.005949;-0.009015;0.383057;-0.601074;-0.434326;0.722658;0.598185;-0.218211;-0.268931
28737;-0.065412;9.524388;1.862333;0.002500;-0.020017;-0.007560;0.390869;-0.595703;-0.441895;0.722581;0.598165;-0.218371;-0.269052
28738;-0.071128;9.570070;1.877495;0.015118;-0.018928;-0.010432;0.388916;-0.601318;-0.433594;0.722484;0.598169;-0.218416;-0.269270
28739;-0.025259;9.672594;1.815234;0.039323;-0.028114;-0.009209;0.380859;-0.600098;-0.434814;0.722210;0.598404;-0.218587;-0.269340
28740;-0.050760;9.689308;1.852081;-0.017250;-0.006878;-0.009722;0.382812;-0.604980;-0.440674;0.722254;0.598275;-0.218642;-0.269467
28741;-0.024419;9.602385;1.869046;-0.077765;-0.002321;-0.008689;0.393555;-0.598145;-0.434326;0.722608;0.597757;-0.218586;-0.269711
28742;-0.034124;9.478792;1.847209;-0.045958;0.002411;-0.007281;0.386963;-0.595947;-0.434814;0.722834;0.597563;-0.218290;-0.269774
28743;-0.097686;9.565948;1.887905;0.043078;0.009221;-0.009988;0.385010;-0.606689;-0.431885;0.722621;0.597876;-0.218243;-0.269690
28744;-0.087122;9.711005;1.827001;0.050972;-0.023585;-0.004102;0.392090;-0.606445;-0.436279;0.722280;0.598209;-0.218536;-0.269630
28745;-0.022116;9.685363;1.813505;-0.060766;-0.005832;-0.008033;0.380371;-0.597900;-0.432617;0.722541;0.597901;-0.218362;-0.269755
28746;-0.088691;9.562623;1.865461;-0.121594;0.013883;-0.014664;0.391113;-0.602295;-0.436279;0.723125;0.597226;-0.218009;-0.269969
28747;-0.044116;9.505744;1.884798;-0.025350;-0.034370;-0.006976;0.388184;-0.603271;-0.441895;0.723164;0.597066;-0.218077;-0.270162
28748;0.017838;9.629562;1.887240;0.045795;-0.033558;-0.005515;0.380127;-0.597168;-0.444336;0.722857;0.597262;-0.218406;-0.270287
28749;-0.010153;9.609676;1.856052;-0.048173;-0.006420;-0.005883;0.384277;-0.602051;-0.436035;0.723079;0.596850;-0.218467;-0.270554
28750;-0.063392;9.578342;1.917624;-0.082380;0.000630;-0.005116;0.385986;-0.589844;-0.436768;0.723459;0.596396;-0.218302;-0.270671
28751;-0.071391;9.546204;1.915734;0.001655;-0.012131;-0.006773;0.389648;-0.601318;-0.443848;0.723434;0.596386;-0.218284;-0.270775
28752;-0.016449;9.611534;1.934554;0.001211;-0.017136;-0.008269;0.387695;-0.597656;-0.439697;0.723379;0.596352;-0.218369;-0.270929
28753;-0.044394;9.563456;1.930695;-0.056098;0.005838;-0.010467;0.385742;-0.595215;-0.434082;0.723647;0.596051;-0.218146;-0.271055
28754;-0.083803;9.501293;1.963948;-0.069271;0.002628;-0.009209;0.389648;-0.596436;-0.438232;0.723972;0.595711;-0.217885;-0.271145
28755;-0.118878;9.527364;1.975379;0.001336;-0.020060;-0.008162;0.391357;-0.594727;-0.443848;0.723912;0.595731;-0.217908;-0.271240
28756;-0.047598;9.573584;1.922359;0.022625;-0.039263;-0.010208;0.382812;-0.599854;-0.439697;0.723725;0.595782;-0.218089;-0.271483
28757;-0.025573;9.651880;1.947005;-0.000440;-0.024326;-0.013121;0.383301;-0.603271;-0.439209;0.723636;0.595749;-0.218256;-0.271659
28758;-0.032864;9.619064;1.919600;-0.019154;-0.020878;-0.013084;0.385742;-0.596191;-0.443848;0.723636;0.595635;-0.218367;-0.271820
28759;-0.017335;9.545034;1.923028;-0.067723;-0.001376;-0.010489;0.383789;-0.596924;-0.438477;0.723950;0.595206;-0.218210;-0.272047
28760;-0.090873;9.523838;1.935736;0.002409;0.005138;-0.013968;0.387695;-0.604492;-0.444824;0.723906;0.595284;-0.218144;-0.272049
28761;-0.106493;9.554756;1.962137;0.016452;-0.029157;-0.002594;0.385498;-0.594971;-0.452148;0.723746;0.595326;-0.218419;-0.272161
28762;-0.011653;9.573720;1.913285;-0.000784;-0.022951;-0.006214;0.386230;-0.594238;-0.444336;0.723710;0.595156;-0.218629;-0.272460
28763;-0.041731;9.647664;1.948279;-0.012439;-0.011718;-0.010286;0.396240;-0.597412;-0.443115;0.723736;0.595041;-0.218636;-0.272636
28764;-0.051313;9.537840;1.900238;-0.066786;-0.003362;-0.010701;0.384033;-0.605957;-0.444092;0.724044;0.594698;-0.218329;-0.272812
28765;-0.070800;9.479097;1.954733;-0.053545;-0.003784;-0.006884;0.387451;-0.601807;-0.446533;0.724256;0.594395;-0.218318;-0.272919
28766;-0.102047;9.554797;2.009342;0.054751;-0.026450;-0.007545;0.385498;-0.601318;-0.438232;0.723907;0.594677;-0.218626;-0.272987
28767;-0.054834;9.644497;1.944413;0.057072;-0.030138;-0.004291;0.390869;-0.595947;-0.442871;0.723538;0.595031;-0.218930;-0.272949
28768;-0.023566;9.659951;1.911082;-0.021449;-0.016770;-0.008517;0.381592;-0.599365;-0.441406;0.723602;0.594900;-0.218879;-0.273104
28769;-0.038543;9.543250;1.969456;-0.084890;0.007582;-0.016173;0.382812;-0.595459;-0.442139;0.723983;0.594442;-0.218643;-0.273280
28770;-0.083210;9.433859;1.974955;-0.043402;-0.013933;-0.017011;0.378906;-0.598633;-0.441406;0.724129;0.594180;-0.218590;-0.273506
28771;-0.051036;9.499160;2.012537;0.057297;-0.028535;-0.011381;0.391113;-0.596680;-0.444092;0.723746;0.594488;-0.218952;-0.273561
28772;-0.022863;9.663524;1.970098;0.077680;-0.032661;-0.007142;0.385986;-0.600098;-0.441406;0.723290;0.594922;-0.219236;-0.273597
28773;-0.013845;9.705294;1.909199;-0.000171;-0.012313;-0.009035;0.386475;-0.597168;-0.446777;0.723236;0.594944;-0.219283;-0.273655
28774;-0.056381;9.555816;1.958402;-0.109774;0.006953;-0.014439;0.383545;-0.594727;-0.457520;0.723761;0.594295;-0.218958;-0.273937
28775;-0.076379;9.403762;1.972797;-0.072010;0.000155;-0.013745;0.387451;-0.595947;-0.442871;0.724096;0.593736;-0.218878;-0.274328
28776;-0.037055;9.512647;1.998081;0.072692;-0.019101;-0.008999;0.387207;-0.596191;-0.444092;0.723678;0.594184;-0.219093;-0.274288
28777;-0.011528;9.693356;1.974268;0.072718;-0.013889;-0.003419;0.384033;-0.596680;-0.440674;0.723284;0.594612;-0.219323;-0.274217
28778;-0.045628;9.628515;1.934164;-0.053491;0.005190;-0.003423;0.383789;-0.591797;-0.444092;0.723546;0.594336;-0.219166;-0.274248
28779;-0.126566;9.458526;1.963998;-0.087151;0.007537;-0.014262;0.387451;-0.595459;-0.437500;0.723966;0.593835;-0.218868;-0.274463
28780;-0.081834;9.493330;2.001682;0.005793;-0.027503;-0.020281;0.386230;-0.595215;-0.447510;0.723839;0.593933;-0.218876;-0.274580
28781;0.003062;9.574788;1.985565;0.053478;-0.024933;-0.016073;0.389160;-0.592041;-0.442627;0.723492;0.594207;-0.219104;-0.274720
28782;-0.063518;9.637776;1.911028;-0.008886;0.004913;-0.012596;0.386719;-0.588867;-0.442871;0.723529;0.594214;-0.218924;-0.274751
28783;-0.136830;9.590691;1.965873;-0.033991;0.002283;-0.011680;0.381836;-0.598633;-0.449707;0.723691;0.594038;-0.218728;-0.274860
28784;-0.134950;9.559280;1.951170;-0.010329;-0.018867;-0.015589;0.385498;-0.600098;-0.436768;0.723657;0.593908;-0.218882;-0.275108
28785;-0.077589;9.593728;1.953812;-0.012280;-0.020897;-0.015708;0.388184;-0.595703;-0.450439;0.723625;0.593919;-0.218884;-0.275167
28786;-0.047413;9.595291;1.947696;-0.020333;-0.014803;-0.008064;0.385742;-0.592285;-0.441162;0.723682;0.593742;-0.218924;-0.275368
28787;-0.009084;9.601494;1.994672;-0.025180;-0.003793;-0.001927;0.386963;-0.597412;-0.454590;0.723798;0.593624;-0.218848;-0.275376
28788;-0.023662;9.552228;1.958873;-0.012402;0.003488;-0.001342;0.392334;-0.596680;-0.450195;0.723858;0.593491;-0.218887;-0.275473
28789;-0.047135;9.553236;1.999773;0.003650;0.006825;-0.002768;0.384521;-0.593018;-0.447754;0.723849;0.593532;-0.218823;-0.275461
28790;-0.045579;9.562690;1.939055;-0.032701;-0.009194;-0.006600;0.384521;-0.591309;-0.441895;0.723980;0.593300;-0.218816;-0.275621
28791;-0.037452;9.549982;1.978551;-0.053759;0.014331;-0.013618;0.391602;-0.586426;-0.447266;0.724244;0.593065;-0.218522;-0.275667
28792;-0.079576;9.490742;2.050961;-0.048157;0.021495;-0.011255;0.384277;-0.598389;-0.449219;0.724521;0.592842;-0.218135;-0.275725
28793;-0.098778;9.548942;2.082563;-0.024109;0.007780;-0.005941;0.386963;-0.595215;-0.445557;0.724624;0.592715;-0.218101;-0.275757
28794;-0.117840;9.543663;2.041904;0.003289;-0.007041;-0.004794;0.386230;-0.588379;-0.451660;0.724577;0.592755;-0.218139;-0.275762
28795;-0.078918;9.588157;1.999620;-0.005898;-0.013433;-0.008779;0.391357;-0.596680;-0.454102;0.724574;0.592648;-0.218196;-0.275956
28796;-0.054251;9.530912;2.009893;-0.053510;-0.000162;-0.008977;0.384033;-0.595215;-0.455566;0.724814;0.592311;-0.218064;-0.276151
28797;-0.087249;9.527439;2.024659;-0.022490;-0.000261;-0.010038;0.388184;-0.589111;-0.453613;0.724894;0.592123;-0.218091;-0.276325
28798;-0.091121;9.543480;2.043969;0.025272;-0.009548;-0.009143;0.389404;-0.597168;-0.454102;0.724740;0.592218;-0.218189;-0.276447
28799;-0.070808;9.570716;1.978093;0.010301;-0.006101;-0.009496;0.382080;-0.589844;-0.442383;0.724647;0.592256;-0.218265;-0.276551
28800;-0.075751;9.588231;2.018030;-0.007622;0.001343;-0.006977;0.392090;-0.584717;-0.451172;0.724677;0.592260;-0.218204;-0.276511
28801;-0.098942;9.587139;2.040378;-0.027127;0.007518;-0.008693;0.385742;-0.597656;-0.440430;0.724827;0.592098;-0.217995;-0.276630
28802;-0.108442;9.556522;2.058248;-0.046746;0.010149;-0.003295;0.389160;-0.592041;-0.447998;0.725055;0.591938;-0.217799;-0.276528
28803;-0.134494;9.493359;2.056737;-0.029280;0.005588;-0.006781;0.390137;-0.590332;-0.442139;0.725196;0.591804;-0.217652;-0.276562
28804;-0.106364;9.498178;2.090476;0.014069;-0.000780;-0.004356;0.388916;-0.583984;-0.448242;0.725123;0.591968;-0.217585;-0.276457
28805;-0.064222;9.631514;2.026606;0.050303;-0.011353;-0.002907;0.390625;-0.587891;-0.452881;0.724870;0.592240;-0.217703;-0.276443
28806;-0.058058;9.571939;2.010084;-0.046817;-0.002695;-0.004525;0.388916;-0.595459;-0.446289;0.725102;0.591920;-0.217578;-0.276618
28807;-0.071687;9.454230;2.069354;-0.084089;0.023457;-0.007410;0.391846;-0.587891;-0.450928;0.725534;0.591522;-0.217205;-0.276630
28808;-0.085700;9.480679;2.060665;0.029229;0.000478;-0.008256;0.387451;-0.589355;-0.450195;0.725386;0.591710;-0.217188;-0.276627
28809;-0.069993;9.631225;2.055221;0.053353;0.001319;-0.006725;0.387207;-0.589600;-0.443848;0.725116;0.592035;-0.217286;-0.276566
28810;-0.091765;9.642946;2.029676;-0.019143;0.016935;-0.002447;0.383789;-0.589844;-0.443848;0.725240;0.591999;-0.217102;-0.276461
28811;-0.135264;9.535623;2.050835;-0.055578;0.015897;-0.000248;0.388916;-0.595703;-0.450195;0.725540;0.591725;-0.216897;-0.276421
28812;-0.056570;9.467799;2.055590;-0.019444;0.002084;-0.004467;0.388672;-0.590332;-0.444580;0.725619;0.591629;-0.216859;-0.276449
28813;-0.130247;9.564986;2.066029;0.012389;0.021620;-0.006883;0.386230;-0.589111;-0.451904;0.725585;0.591810;-0.216691;-0.276285
28814;-0.154354;9.592363;2.061544;0.003118;-0.004806;0.000052;0.384521;-0.592773;-0.446777;0.725563;0.591779;-0.216782;-0.276335
28815;-0.072274;9.535614;2.000075;-0.036400;-0.008928;0.001620;0.385498;-0.589600;-0.444824;0.725720;0.591547;-0.216814;-0.276394
28816;-0.080400;9.478649;2.061313;-0.038686;0.012364;-0.002583;0.385498;-0.592041;-0.458252;0.725928;0.591374;-0.216642;-0.276354
28817;-0.108606;9.535456;2.080243;-0.006950;-0.001637;-0.008057;0.388184;-0.592529;-0.449463;0.725931;0.591263;-0.216723;-0.276520
28818;-0.112612;9.577758;2.056219;0.009879;-0.001073;-0.007640;0.390625;-0.592529;-0.448730;0.725858;0.591345;-0.216738;-0.276524
28819;-0.111300;9.548608;2.058494;-0.012096;0.009994;-0.007699;0.389404;-0.583252;-0.453613;0.725918;0.591333;-0.216602;-0.276499
28820;-0.095494;9.593736;2.058721;-0.016693;-0.003502;-0.000312;0.394531;-0.598145;-0.446533;0.726013;0.591174;-0.216580;-0.276607
28821;-0.067518;9.547624;2.002597;-0.002614;0.002643;-0.004052;0.391602;-0.593994;-0.449463;0.726013;0.591246;-0.216499;-0.276518
28822;-0.193857;9.536855;2.017640;-0.010150;0.030623;-0.008561;0.390137;-0.593018;-0.451904;0.726095;0.591297;-0.216244;-0.276394
28823;-0.184069;9.523506;2.031686;-0.017206;-0.006552;-0.001922;0.389404;-0.587646;-0.451904;0.726158;0.591177;-0.216267;-0.276465
28824;-0.086319;9.591604;2.033206;0.015145;-0.014236;-0.000111;0.396240;-0.593750;-0.447510;0.726066;0.591216;-0.216396;-0.276523
28825;-0.123242;9.634586;2.058103;0.000801;0.012681;-0.001964;0.389404;-0.590332;-0.440674;0.726084;0.591310;-0.216243;-0.276394
28826;-0.120165;9.487794;2.082878;-0.058461;-0.016235;0.007461;0.386230;-0.596924;-0.454590;0.726363;0.590983;-0.216184;-0.276406
28827;-0.007716;9.345189;2.031994;-0.018763;-0.034599;0.007026;0.388916;-0.587646;-0.453125;0.726385;0.590755;-0.216501;-0.276589
28828;-0.113291;9.536002;2.131330;0.104252;-0.002208;0.005458;0.396973;-0.592041;-0.446533;0.725888;0.591349;-0.216793;-0.276395
28829;-0.172319;9.571496;2.027405;0.084752;-0.034984;0.010733;0.390625;-0.595459;-0.445801;0.725445;0.591821;-0.217151;-0.276265
28830;-0.059344;9.483541;2.076113;-0.016627;-0.031251;0.012961;0.380615;-0.595459;-0.449707;0.725495;0.591672;-0.217350;-0.276298
28831;-0.025505;9.486107;2.066039;0.033817;-0.008301;0.008130;0.385742;-0.592041;-0.445801;0.725307;0.591827;-0.217642;-0.276230
28832;-0.065047;9.678808;2.079673;0.123421;0.007959;0.002410;0.389893;-0.594238;-0.441895;0.724716;0.592608;-0.217900;-0.275901
28833;0.000831;9.709701;1.962472;0.062243;0.016391;0.012588;0.382324;-0.591064;-0.444824;0.724471;0.593058;-0.217956;-0.275532
28834;0.010899;9.700475;2.012458;-0.022277;0.041497;0.017008;0.384766;-0.596191;-0.442383;0.724692;0.592982;-0.217787;-0.275250
28835;-0.115256;9.483072;2.048122;-0.065434;0.052536;0.010305;0.391602;-0.596680;-0.446533;0.725123;0.592722;-0.217402;-0.274981
28836;-0.135028;9.374607;2.030295;-0.024850;0.006223;0.002270;0.384766;-0.590820;-0.451660;0.725263;0.592610;-0.217302;-0.274931
28837;-0.122979;9.477443;2.000736;0.054407;0.004290;-0.006272;0.380371;-0.588867;-0.439209;0.724986;0.592911;-0.217440;-0.274902
28838;-0.101488;9.660570;2.022571;0.049876;0.007010;-0.007639;0.386230;-0.594482;-0.440918;0.724734;0.593265;-0.217497;-0.274757
28839;-0.114010;9.594585;1.943175;-0.047140;0.022317;-0.013689;0.386475;-0.587646;-0.441650;0.724974;0.593095;-0.217186;-0.274738
28840;-0.141583;9.464893;2.055382;-0.093296;0.036623;-0.012589;0.392822;-0.598877;-0.445068;0.725487;0.592656;-0.216656;-0.274749
28841;-0.176489;9.489111;2.046591;0.024603;-0.003438;-0.005258;0.383057;-0.594727;-0.447998;0.725344;0.592854;-0.216688;-0.274676
28842;-0.063448;9.632135;2.014804;0.076019;-0.030918;0.001198;0.385498;-0.594482;-0.447754;0.724894;0.593216;-0.217162;-0.274708
28843;-0.040056;9.632391;1.968927;-0.004556;0.017513;-0.000216;0.382568;-0.601074;-0.443604;0.724937;0.593211;-0.217112;-0.274645
28844;-0.099902;9.583261;1.994462;-0.057207;0.025619;-0.001213;0.389893;-0.593750;-0.444824;0.725230;0.592945;-0.216930;-0.274588
28845;-0.105425;9.522064;1.994165;-0.020779;0.002834;-0.007945;0.402100;-0.592773;-0.438232;0.725325;0.592861;-0.216812;-0.274612
28846;-0.128843;9.533985;1.994961;-0.017253;0.007816;-0.008580;0.384521;-0.585693;-0.439941;0.725450;0.592904;-0.216460;-0.274467
28847;-0.106259;9.597401;2.022606;0.025063;-0.006310;-0.004290;0.395996;-0.595703;-0.442871;0.725315;0.593068;-0.216516;-0.274424
28848;-0.063878;9.613686;1.979424;0.013528;-0.009317;0.001249;0.387207;-0.595459;-0.443604;0.725252;0.593187;-0.216518;-0.274331
28849;-0.050040;9.584535;1.973481;-0.033849;0.012798;0.002373;0.384766;-0.596436;-0.448730;0.725437;0.593027;-0.216409;-0.274275
28850;-0.119007;9.520099;2.011798;-0.053866;0.015899;-0.000971;0.388184;-0.592285;-0.446289;0.725705;0.592716;-0.216293;-0.274331
28851;-0.107502;9.504824;2.007874;-0.006160;-0.004461;-0.006245;0.389404;-0.591797;-0.456055;0.725713;0.592682;-0.216294;-0.274384
28852;-0.078340;9.508383;2.020386;-0.000154;0.002509;-0.007928;0.390869;-0.591309;-0.444824;0.725699;0.592636;-0.216308;-0.274508
28853;-0.098153;9.582158;2.045720;-0.003954;0.001700;-0.002513;0.394531;-0.586182;-0.441406;0.725727;0.592642;-0.216244;-0.274471
28854;-0.102612;9.652074;1.999127;0.003562;-0.002895;-0.001198;0.390869;-0.592529;-0.450928;0.725740;0.592708;-0.216130;-0.274384
28855;-0.115642;9.548548;2.031359;-0.069158;0.002347;-0.006191;0.390137;-0.586914;-0.443848;0.726077;0.592286;-0.215945;-0.274551
28856;-0.117114;9.429242;2.061617;-0.083347;-0.002279;-0.010358;0.394287;-0.589600;-0.449707;0.726480;0.591816;-0.215664;-0.274719
28857;-0.144288;9.471221;2.082651;0.024340;-0.014428;-0.009477;0.394043;-0.591064;-0.448242;0.726334;0.591954;-0.215707;-0.274772
28858;-0.106017;9.622610;2.057280;0.069636;-0.037299;-0.005874;0.388672;-0.596191;-0.445312;0.725927;0.592319;-0.216013;-0.274820
28859;-0.037145;9.700204;1.998044;0.008932;-0.026316;-0.001985;0.392334;-0.595459;-0.444580;0.725818;0.592343;-0.216214;-0.274901
28860;-0.064907;9.549547;2.012085;-0.080034;0.008006;-0.003289;0.385010;-0.593506;-0.444336;0.726222;0.591926;-0.215936;-0.274948
28861;-0.141408;9.453112;2.046273;-0.068483;0.006227;-0.006617;0.383057;-0.594238;-0.441895;0.726537;0.591557;-0.215765;-0.275046
28862;-0.132901;9.480279;2.018009;0.015691;-0.029470;-0.010313;0.388916;-0.587891;-0.451660;0.726355;0.591637;-0.215999;-0.275170
28863;-0.074190;9.606326;2.041575;0.022989;-0.022269;-0.008570;0.380371;-0.595215;-0.439697;0.726190;0.591717;-0.216157;-0.275307
28864;-0.052610;9.684259;2.068228;-0.012901;-0.009599;-0.006346;0.388428;-0.584717;-0.442871;0.726186;0.591671;-0.216244;-0.275351
28865;-0.051410;9.591469;2.027629;-0.053916;-0.017299;0.003826;0.378662;-0.593262;-0.447266;0.726452;0.591328;-0.216182;-0.275435
28866;-0.043476;9.490441;2.084546;-0.053262;-0.008593;0.001154;0.385498;-0.593750;-0.453125;0.726658;0.590968;-0.216269;-0.275596
28867;-0.070911;9.456544;2.079775;-0.012070;-0.013402;-0.004508;0.385986;-0.597412;-0.453369;0.726661;0.590850;-0.216394;-0.275744
28868;-0.066606;9.503087;2.108583;0.008345;-0.013593;-0.002480;0.392578;-0.590088;-0.451172;0.726560;0.590861;-0.216588;-0.275832
28869;-0.070768;9.573385;2.061588;0.000888;-0.021681;-0.002154;0.394043;-0.593506;-0.450928;0.726528;0.590831;-0.216671;-0.275915
28870;-0.013054;9.505406;2.083680;-0.052362;-0.007872;-0.004116;0.394043;-0.588623;-0.444824;0.726776;0.590529;-0.216533;-0.276016
28871;-0.087712;9.485190;2.140880;-0.053304;0.009579;-0.007605;0.392090;-0.584961;-0.453369;0.727071;0.590304;-0.216198;-0.275982
28872;-0.127497;9.464494;2.122802;0.006118;-0.014952;-0.008444;0.387695;-0.586914;-0.457275;0.727023;0.590315;-0.216209;-0.276079
28873;-0.090728;9.512616;2.119994;0.019820;-0.025074;-0.004327;0.382324;-0.588867;-0.459717;0.726874;0.590340;-0.216429;-0.276246
28874;-0.035506;9.488660;2.110907;0.023161;-0.017871;-0.000086;0.394531;-0.590332;-0.446533;0.726704;0.590364;-0.216727;-0.276405
28875;-0.016667;9.547426;2.061602;0.041575;-0.017732;0.009550;0.386475;-0.596680;-0.447510;0.726518;0.590615;-0.216876;-0.276244
28876;-0.003146;9.626430;2.091398;0.052997;-0.004442;0.012339;0.384766;-0.597656;-0.447998;0.726261;0.590937;-0.217124;-0.276036
28877;-0.016940;9.580498;2.067932;0.006921;0.016430;0.009253;0.391113;-0.587158;-0.454346;0.726255;0.591022;-0.217154;-0.275847
28878;-0.071039;9.514777;2.049080;-0.018311;0.009702;0.009449;0.387207;-0.592529;-0.448242;0.726406;0.590895;-0.217073;-0.275784
28879;-0.061522;9.518001;2.079481;0.031864;0.008305;0.007006;0.387451;-0.589355;-0.439453;0.726280;0.591112;-0.217140;-0.275599
28880;-0.080555;9.528814;2.031913;0.021273;-0.000186;0.001687;0.389160;-0.585693;-0.453125;0.726198;0.591304;-0.217126;-0.275415
28881;-0.072039;9.505096;2.107950;-0.037027;0.013327;-0.003223;0.390869;-0.596680;-0.454346;0.726419;0.591089;-0.216925;-0.275448
28882;-0.118525;9.440644;2.101648;0.003704;0.009687;-0.004871;0.388428;-0.594238;-0.444824;0.726404;0.591138;-0.216880;-0.275421
28883;-0.087280;9.561026;2.069014;0.072082;-0.022197;-0.000882;0.388428;-0.593994;-0.446289;0.726008;0.591566;-0.217162;-0.275322
28884;-0.030145;9.535153;2.014727;0.020800;-0.002516;-0.004883;0.387939;-0.597656;-0.454590;0.725893;0.591722;-0.217195;-0.275267
28885;-0.056624;9.551800;2.074313;-0.017816;0.017856;-0.003951;0.390625;-0.588379;-0.450684;0.725988;0.591640;-0.217100;-0.275264
28886;-0.098935;9.561203;2.049482;0.030850;0.000811;-0.003992;0.386719;-0.599854;-0.453369;0.725851;0.591830;-0.217112;-0.275209
28887;-0.123829;9.590465;2.063172;0.017075;-0.007408;-0.002210;0.381104;-0.586182;-0.445068;0.725723;0.591904;-0.217281;-0.275254
28888;-0.087197;9.521283;2.080875;-0.024657;0.000860;-0.005339;0.394043;-0.582275;-0.452393;0.725835;0.591759;-0.217226;-0.275315
28889;-0.098916;9.533840;2.070367;0.007420;-0.007843;-0.004385;0.383301;-0.593994;-0.447510;0.725822;0.591773;-0.217175;-0.275358
28890;-0.085597;9.622604;2.040668;0.041398;-0.013534;-0.003340;0.383057;-0.587158;-0.454102;0.725570;0.591998;-0.217401;-0.275360
28891;-0.035529;9.551630;2.004459;-0.013199;-0.000640;-0.003750;0.383789;-0.592285;-0.454834;0.725622;0.591866;-0.217430;-0.275483
28892;-0.100355;9.534240;2.068455;-0.039685;0.029062;-0.001095;0.385742;-0.595459;-0.446045;0.725853;0.591647;-0.217254;-0.275486
28893;-0.125196;9.575915;2.064061;0.042200;-0.004236;0.004700;0.387939;-0.596924;-0.444824;0.725641;0.591906;-0.217429;-0.275351
28894;-0.074914;9.610089;2.050932;0.000001;-0.008602;0.004389;0.389160;-0.587158;-0.448975;0.725633;0.591913;-0.217506;-0.275294
28895;-0.123688;9.483436;2.021893;-0.089248;0.023252;-0.005386;0.392822;-0.595459;-0.451660;0.726125;0.591428;-0.217104;-0.275357
28896;-0.124592;9.455224;2.073496;-0.015885;-0.000832;-0.005663;0.389160;-0.585449;-0.442871;0.726195;0.591348;-0.217035;-0.275399
28897;-0.065444;9.594917;2.073521;0.076394;-0.026919;-0.000307;0.395996;-0.602051;-0.452148;0.725801;0.591783;-0.217291;-0.275302
28898;-0.066662;9.637262;2.022544;0.006203;-0.001722;0.000663;0.387695;-0.596436;-0.451660;0.725769;0.591837;-0.217310;-0.275254
28899;-0.112058;9.572750;2.016629;-0.042332;0.005471;0.000200;0.384521;-0.592773;-0.447510;0.725979;0.591584;-0.217231;-0.275307
28900;-0.102077;9.560237;2.053826;-0.016369;-0.010371;-0.000057;0.382080;-0.592041;-0.449463;0.726035;0.591465;-0.217294;-0.275365
28901;-0.057618;9.546613;2.017631;-0.008091;-0.002689;-0.008544;0.382080;-0.588379;-0.444824;0.726037;0.591411;-0.217321;-0.275453
28902;-0.093775;9.573940;2.048473;-0.035831;0.001681;-0.001101;0.392334;-0.592041;-0.444824;0.726216;0.591209;-0.217244;-0.275477
28903;-0.092294;9.546495;2.096457;-0.022674;-0.020821;0.010760;0.390137;-0.585205;-0.448975;0.726339;0.591048;-0.217298;-0.275454
28904;-0.038632;9.578721;2.065806;0.026518;-0.029594;0.017911;0.387695;-0.592773;-0.441895;0.726227;0.591112;-0.217565;-0.275403
28905;-0.036333;9.592529;2.041467;0.007251;-0.007327;0.005464;0.383301;-0.588623;-0.441895;0.726204;0.591182;-0.217608;-0.275280
28906;-0.053419;9.533934;2.090581;-0.067728;-0.000439;-0.002494;0.390137;-0.586426;-0.443115;0.726540;0.590807;-0.217426;-0.275341
28907;-0.072235;9.410412;2.075818;-0.055756;-0.014104;-0.008336;0.382080;-0.593994;-0.448242;0.726808;0.590497;-0.217240;-0.275445
28908;-0.024214;9.430978;2.112588;0.002182;-0.019764;-0.003744;0.389160;-0.593994;-0.442383;0.726733;0.590478;-0.217415;-0.275545
28909;-0.057845;9.562194;2.118958;0.053066;-0.016806;0.001136;0.379883;-0.586670;-0.449463;0.726460;0.590823;-0.217585;-0.275392
28910;-0.047465;9.708806;2.060844;0.045209;-0.017800;0.006168;0.386963;-0.589600;-0.451660;0.726210;0.591021;-0.217890;-0.275384
28911;-0.062678;9.546041;2.082380;-0.066449;-0.010950;0.002517;0.383301;-0.587158;-0.451904;0.726536;0.590580;-0.217814;-0.275533
28912;-0.052766;9.415105;2.144140;-0.079788;0.006852;-0.005074;0.392090;-0.591064;-0.454834;0.726933;0.590100;-0.217594;-0.275688
28913;-0.080079;9.406996;2.073077;0.045409;-0.026182;-0.004307;0.384277;-0.583984;-0.452881;0.726676;0.590323;-0.217796;-0.275729
28914;0.018412;9.581347;2.066117;0.105616;-0.043587;-0.000021;0.386963;-0.590332;-0.453857;0.726092;0.590836;-0.218306;-0.275764
28915;0.001120;9.656176;2.059603;0.035629;-0.002980;-0.004708;0.381836;-0.600342;-0.442871;0.725911;0.591036;-0.218390;-0.275746
28916;-0.073322;9.599203;1.975941;-0.033115;-0.004313;-0.004717;0.378906;-0.594727;-0.447998;0.726032;0.590880;-0.218370;-0.275778
28917;-0.027137;9.530897;2.007949;-0.021534;-0.013959;-0.008667;0.388916;-0.599365;-0.454590;0.726066;0.590733;-0.218453;-0.275936
28918;-0.015004;9.501317;2.004048;-0.027991;0.011275;-0.010453;0.390381;-0.598145;-0.451660;0.726194;0.590610;-0.218304;-0.275983
28919;-0.033208;9.637030;2.079836;0.000546;0.003774;-0.003355;0.386230;-0.597168;-0.455078;0.726194;0.590648;-0.218260;-0.275933
28920;0.019419;9.666860;2.006789;0.015005;-0.008201;0.002516;0.384766;-0.596191;-0.445068;0.726098;0.590703;-0.218417;-0.275944
28921;0.007173;9.680711;2.017274;-0.035443;0.035302;0.002947;0.394287;-0.589600;-0.444336;0.726342;0.590603;-0.218142;-0.275735
28922;-0.057223;9.624292;1.950151;-0.034657;0.018649;0.003511;0.388428;-0.588135;-0.451416;0.726605;0.590487;-0.217828;-0.275537
28923;0.063199;9.691458;1.913634;0.000795;0.004083;0.002431;0.384766;-0.589844;-0.446289;0.726637;0.590497;-0.217785;-0.275466
28924;0.127655;9.783180;1.883980;-0.045518;0.059179;-0.003258;0.394531;-0.590576;-0.446045;0.726970;0.590383;-0.217296;-0.275217
28925;0.134540;9.732393;1.815285;-0.087516;0.079837;0.006879;0.391846;-0.591797;-0.443604;0.727605;0.590073;-0.216528;-0.274809
28926;0.179547;9.821768;1.787072;0.017936;0.088233;0.024009;0.386719;-0.585693;-0.452637;0.727758;0.590399;-0.216070;-0.274064
28927;0.186133;9.975209;1.611444;0.115898;0.125690;0.039647;0.393555;-0.591797;-0.450195;0.727518;0.591296;-0.215772;-0.272999
28928;0.144905;9.965163;1.481869;0.048663;0.183652;0.048518;0.387939;-0.595947;-0.441650;0.727745;0.591931;-0.214959;-0.271659
28929;0.072659;9.897721;1.460443;-0.043371;0.251540;0.057323;0.388916;-0.593262;-0.442871;0.728528;0.592163;-0.213639;-0.270090
28930;0.071024;9.837968;1.482020;-0.048703;0.280275;0.071554;0.386963;-0.589111;-0.440674;0.729421;0.592382;-0.212202;-0.268325
28931;0.197645;9.864040;1.518110;-0.043940;0.291737;0.087768;0.401123;-0.592285;-0.438232;0.730341;0.592612;-0.210798;-0.266416
28932;0.169847;9.811395;1.493458;-0.145640;0.382314;0.092594;0.402100;-0.597656;-0.437500;0.731974;0.592458;-0.208486;-0.264088
28933;-0.057786;9.650383;1.475234;-0.265436;0.459974;0.091777;0.393066;-0.585205;-0.434326;0.734297;0.591738;-0.205477;-0.261597
28934;-0.322059;9.453194;1.423640;-0.327054;0.482183;0.084770;0.405518;-0.588135;-0.437256;0.736910;0.590652;-0.202234;-0.259219
28935;-0.546474;9.126584;1.377495;-0.419223;0.512113;0.058002;0.405762;-0.585693;-0.438965;0.739978;0.589115;-0.198383;-0.256943
28936;-0.814921;8.742540;1.448332;-0.501587;0.580556;0.023036;0.408691;-0.584961;-0.436523;0.743445;0.587241;-0.193803;-0.254713
28937;-1.283802;8.617457;1.806843;-0.527953;0.655455;-0.004587;0.417725;-0.570801;-0.447266;0.747056;0.585397;-0.188574;-0.252303
28938;-1.936515;8.933348;2.296301;-0.479467;0.641432;-0.040276;0.419189;-0.571777;-0.438477;0.750338;0.583804;-0.183288;-0.250143
28939;-2.320207;9.292348;2.707722;-0.415743;0.436871;-0.056179;0.421143;-0.583008;-0.440674;0.752911;0.582225;-0.179362;-0.248935
28940;-2.183514;9.492375;2.763749;-0.312962;0.162930;-0.052769;0.429199;-0.566895;-0.439453;0.754519;0.580721;-0.177498;-0.248914
28941;-1.868092;10.078979;2.749329;-0.143408;-0.034072;-0.032040;0.430908;-0.572510;-0.442627;0.755123;0.579850;-0.177140;-0.249370
28942;-1.674777;10.335898;2.480300;-0.024641;-0.215761;0.020329;0.426758;-0.566406;-0.439697;0.754979;0.579278;-0.178449;-0.250198
28943;-1.248212;9.966327;2.169661;-0.088301;-0.442738;0.104967;0.422119;-0.564697;-0.452393;0.754982;0.577707;-0.181437;-0.251670
28944;-0.495086;9.413070;1.772137;-0.151343;-0.674480;0.193354;0.410156;-0.568359;-0.461182;0.755101;0.575066;-0.186207;-0.253867
28945;0.255602;9.006163;1.767954;-0.136646;-0.746897;0.270748;0.407227;-0.573975;-0.470947;0.755128;0.572203;-0.191938;-0.255979
28946;0.877043;9.066953;2.117203;-0.294814;-0.749029;0.306421;0.398682;-0.574219;-0.475830;0.755962;0.568266;-0.197464;-0.258075
28947;1.325600;9.389478;2.556132;-0.711673;-0.660916;0.268887;0.385986;-0.568604;-0.476807;0.758791;0.561934;-0.201336;-0.260635
28948;1.444392;9.458946;2.431661;-0.977619;-0.618260;0.178607;0.388672;-0.555664;-0.487549;0.762658;0.554137;-0.203955;-0.263985
28949;1.823115;9.232610;2.394137;-1.062117;-0.734078;0.142396;0.369385;-0.555420;-0.508545;0.766638;0.545581;-0.206752;-0.268069
28950;2.330140;9.485523;2.632451;-0.925047;-0.722948;0.133797;0.360840;-0.542480;-0.514404;0.769812;0.537829;-0.209974;-0.272104
28951;2.472563;9.979423;2.753301;-0.597238;-0.400063;0.113750;0.354736;-0.532715;-0.519531;0.771997;0.532922;-0.211730;-0.274199
28952;2.089852;10.385466;3.021324;-0.439090;-0.078259;0.129401;0.355957;-0.533203;-0.529297;0.774073;0.529718;-0.211829;-0.274479
28953;1.399673;10.153875;2.848420;-0.468385;0.025398;0.145854;0.356201;-0.527344;-0.530762;0.776497;0.526524;-0.211247;-0.274226
28954;0.846020;9.787716;2.689347;-0.333331;0.045117;0.141672;0.359863;-0.525879;-0.538086;0.778365;0.524258;-0.210781;-0.273631
28955;0.539813;9.423953;2.276707;0.044925;-0.024313;0.114370;0.344727;-0.528320;-0.533691;0.778422;0.524332;-0.211452;-0.272806
28956;0.545010;9.348424;2.001893;0.287337;-0.145389;0.106760;0.351318;-0.528809;-0.544189;0.777063;0.525683;-0.213663;-0.272357
28957;0.738814;9.343973;1.840390;0.246524;-0.220463;0.093151;0.350098;-0.533691;-0.534424;0.775789;0.526598;-0.216077;-0.272317
28958;1.007956;9.219917;1.695726;0.092256;-0.260386;0.084706;0.343018;-0.526611;-0.534912;0.775106;0.526485;-0.218316;-0.272694
28959;1.274702;9.043164;1.610582;-0.066852;-0.257861;0.073109;0.345703;-0.533447;-0.538574;0.775088;0.525333;-0.220151;-0.273492
28960;1.430961;8.882908;1.605770;-0.197417;-0.230303;0.051526;0.334473;-0.534912;-0.544434;0.775661;0.523470;-0.221362;-0.274459
28961;1.570957;8.878284;1.815406;-0.261141;-0.209923;0.019301;0.334717;-0.534912;-0.547363;0.776375;0.521265;-0.222333;-0.275850
28962;1.744386;8.853292;1.917990;-0.328395;-0.262449;0.004395;0.331299;-0.533691;-0.551025;0.777255;0.518546;-0.223389;-0.277638
28963;1.959300;8.800583;2.132621;-0.419791;-0.248626;0.026637;0.337158;-0.518555;-0.560303;0.778580;0.515225;-0.224259;-0.279401
28964;2.126139;8.802626;2.201138;-0.399262;-0.162205;0.039172;0.329590;-0.524170;-0.555176;0.780115;0.512176;-0.224485;-0.280541
28965;2.070769;8.827767;2.397705;-0.299817;-0.075338;0.048884;0.331299;-0.519043;-0.556152;0.781323;0.510010;-0.224524;-0.281093
28966;1.919280;8.686711;2.357421;-0.268997;-0.007540;0.055835;0.324707;-0.518555;-0.563721;0.782581;0.508195;-0.224153;-0.281177
28967;1.818132;8.580496;2.302188;-0.168458;0.001730;0.063203;0.330566;-0.519775;-0.562988;0.783368;0.507007;-0.224124;-0.281152
28968;1.732992;8.558913;2.304829;-0.059036;0.017773;0.046630;0.341064;-0.513428;-0.557373;0.783744;0.506641;-0.224065;-0.280811
28969;1.691543;8.606291;2.378027;0.003382;0.054041;0.008684;0.330322;-0.512451;-0.567627;0.783986;0.506870;-0.223510;-0.280165
28970;1.600759;8.684411;2.449148;0.014240;0.046591;-0.043607;0.331787;-0.515625;-0.559326;0.783915;0.507167;-0.223048;-0.280196
28971;1.531261;8.647187;2.278450;-0.029704;0.048844;-0.096003;0.331543;-0.519775;-0.554688;0.783909;0.507327;-0.222226;-0.280574
28972;1.367798;8.665995;2.226829;-0.105786;0.083643;-0.136583;0.333008;-0.518555;-0.566895;0.784153;0.507180;-0.220870;-0.281227
28973;1.152077;8.961924;2.416277;-0.121696;0.125534;-0.174261;0.336914;-0.507324;-0.564697;0.784430;0.507046;-0.219099;-0.282079
28974;1.050082;9.282112;2.566712;-0.059575;0.086826;-0.247873;0.340576;-0.507812;-0.559814;0.784264;0.507336;-0.217329;-0.283387
28975;1.105080;9.339169;2.634311;-0.134749;0.025071;-0.304439;0.341064;-0.503662;-0.563232;0.784166;0.507122;-0.215526;-0.285411
28976;1.219431;9.326969;2.685860;-0.219605;0.059618;-0.331834;0.340088;-0.505127;-0.565430;0.784388;0.506458;-0.213230;-0.287696
28977;1.269043;9.463987;2.943132;-0.083628;0.215898;-0.374086;0.349365;-0.499756;-0.557617;0.784110;0.507137;-0.210184;-0.289493
28978;1.648768;9.581774;3.510714;-0.061254;0.254314;-0.396658;0.358887;-0.500488;-0.560303;0.783826;0.508120;-0.206705;-0.291041
28979;2.348227;10.289097;4.362237;-0.299305;0.221961;-0.386487;0.357910;-0.495117;-0.564209;0.784533;0.507451;-0.202858;-0.293003
28980;2.210577;12.516795;4.935757;0.039999;0.649165;-0.462804;0.362061;-0.492432;-0.565186;0.784222;0.510128;-0.196865;-0.293274
28981;0.236949;14.684098;5.181471;0.707026;0.883024;-0.537376;0.379883;-0.492188;-0.556885;0.781126;0.517786;-0.190793;-0.292125
28982;-0.604106;15.310091;5.053114;0.570046;0.277974;-0.483323;0.381348;-0.490723;-0.544189;0.777822;0.522937;-0.188428;-0.293298
28983;-0.263800;12.594445;3.971329;-0.493793;-0.365941;-0.343094;0.373047;-0.487793;-0.555176;0.778422;0.519385;-0.188281;-0.298075
28984;-0.155870;10.273922;3.696554;-0.767819;-0.238397;-0.323896;0.385742;-0.475830;-0.560791;0.780270;0.514316;-0.186906;-0.302859
28985;-0.882738;8.653590;3.076665;0.413595;-0.120719;-0.364365;0.382324;-0.477295;-0.559082;0.777308;0.517278;-0.187278;-0.305193
28986;-0.998117;7.719732;2.807394;1.263341;-0.209628;-0.365088;0.385010;-0.489014;-0.544922;0.770407;0.525475;-0.190479;-0.306702
28987;-0.242926;7.575391;3.503120;0.745666;-0.067147;-0.334860;0.396484;-0.490479;-0.539795;0.766051;0.530664;-0.191481;-0.308051
28988;-0.212013;7.438629;3.735396;-0.183644;0.116111;-0.391726;0.399902;-0.493164;-0.533936;0.766072;0.530446;-0.188484;-0.310216
28989;-0.362510;7.258058;4.212655;-0.794171;0.221820;-0.458026;0.401855;-0.483643;-0.545410;0.768754;0.526762;-0.182909;-0.313185
28990;-0.749222;7.549828;4.822316;-0.828024;0.361177;-0.450158;0.407227;-0.471191;-0.557129;0.771669;0.523142;-0.176525;-0.315735
28991;-1.522113;7.770509;5.591385;-0.845089;0.412559;-0.403215;0.414062;-0.462646;-0.541504;0.774744;0.519394;-0.170056;-0.317936
28992;-2.093031;8.393347;5.915326;-0.823602;0.217064;-0.358436;0.407959;-0.450195;-0.561768;0.777650;0.515275;-0.164874;-0.320265
28993;-2.243279;8.980974;5.530717;-0.437180;-0.084048;-0.319483;0.412109;-0.445068;-0.559082;0.778280;0.512699;-0.163225;-0.323694
28994;-1.751743;8.881662;4.762471;-0.250227;-0.313787;-0.253875;0.412354;-0.435791;-0.557373;0.778060;0.510659;-0.163699;-0.327189
28995;-1.035309;8.510796;4.314266;-0.254226;-0.322025;-0.193839;0.420166;-0.443848;-0.572021;0.778095;0.508471;-0.164346;-0.330175
28996;-0.842666;8.076768;4.003066;-0.148550;-0.169435;-0.140133;0.417236;-0.427734;-0.569092;0.778038;0.507332;-0.164505;-0.331977
28997;-0.979792;8.143153;3.910772;0.109432;-0.158579;-0.108028;0.406494;-0.425293;-0.562012;0.777055;0.507779;-0.165386;-0.333157
28998;-0.828345;8.375694;3.640442;0.257946;-0.356578;-0.065306;0.406494;-0.437500;-0.572021;0.775194;0.508599;-0.168237;-0.334808
28999;-0.321402;8.508726;3.344560;0.171635;-0.461646;-0.032524;0.403320;-0.437744;-0.577148;0.773548;0.508539;-0.171754;-0.336915
29000;-0.043242;8.430296;3.035259;-0.074647;-0.364370;-0.035964;0.401367;-0.437500;-0.570068;0.773056;0.507136;-0.173951;-0.339027
29001;-0.169016;8.137413;2.905043;-0.327885;-0.181995;-0.047221;0.405273;-0.430908;-0.578857;0.773994;0.504685;-0.174030;-0.340500
29002;-0.365875;7.766127;2.874029;-0.378195;-0.158884;-0.048924;0.389160;-0.430176;-0.580566;0.775209;0.501916;-0.173775;-0.341957
29003;-0.456849;7.514146;2.877622;-0.218173;-0.213302;-0.038619;0.392578;-0.424316;-0.582275;0.775429;0.500054;-0.174660;-0.343731
29004;-0.592360;7.423740;2.805994;-0.061182;-0.205735;-0.051509;0.386963;-0.428467;-0.578369;0.775096;0.499222;-0.175744;-0.345133
29005;-0.768874;7.422266;2.799991;0.021986;-0.208880;-0.073353;0.390625;-0.426270;-0.592041;0.774332;0.499022;-0.176990;-0.346499
29006;-0.888488;7.517121;2.750785;0.102071;-0.266256;-0.095426;0.398682;-0.424805;-0.588379;0.773028;0.499116;-0.178830;-0.348327
29007;-0.927381;7.584916;2.611921;0.196726;-0.347035;-0.116096;0.390137;-0.422119;-0.592041;0.771407;0.499612;-0.181085;-0.350039
29008;-0.845968;7.736882;2.468176;0.238939;-0.355677;-0.125198;0.383057;-0.430176;-0.586426;0.769407;0.500321;-0.183656;-0.352082
29009;-0.700561;7.909278;2.674000;0.174531;-0.330681;-0.106207;0.382080;-0.425537;-0.588379;0.767736;0.500746;-0.185950;-0.353917
29010;-0.553409;8.272408;2.828557;0.073532;-0.328369;-0.066889;0.375000;-0.431885;-0.593750;0.766624;0.500412;-0.188081;-0.355669
29011;-0.414555;8.552205;2.841045;0.006245;-0.344981;-0.003408;0.376953;-0.429443;-0.595215;0.765790;0.499524;-0.190536;-0.357402
29012;-0.150426;9.214664;3.180374;-0.063889;-0.173865;0.053805;0.372803;-0.425293;-0.590820;0.765822;0.498587;-0.191790;-0.357973
29013;-0.358059;10.299149;3.387667;-0.168017;0.118408;0.077396;0.371338;-0.428711;-0.602539;0.766867;0.497822;-0.190915;-0.357267
29014;-1.168396;10.975580;3.708747;-0.471989;0.192526;0.135730;0.375244;-0.426758;-0.595703;0.769241;0.495210;-0.189134;-0.356739
29015;-1.256086;10.689561;3.829833;-0.807412;0.015700;0.218335;0.373047;-0.418701;-0.600830;0.773146;0.489849;-0.187587;-0.356517
29016;-0.744514;10.416081;4.070823;-0.615905;0.074988;0.275263;0.369629;-0.416504;-0.607666;0.776484;0.485781;-0.186471;-0.355412
29017;-0.786503;10.516734;5.021319;-0.153025;0.693026;0.281484;0.368164;-0.412598;-0.592773;0.778801;0.486516;-0.182848;-0.351195
29018;-1.353776;11.969248;6.392892;0.045018;0.560868;0.281952;0.374512;-0.417725;-0.593750;0.780128;0.488172;-0.180605;-0.347089
29019;-0.945275;13.963539;5.399006;0.948024;-0.434153;0.334985;0.366943;-0.431641;-0.601074;0.776378;0.492703;-0.187669;-0.345341
29020;1.292929;15.587340;5.131708;1.195931;-0.532882;0.441920;0.369141;-0.436279;-0.589844;0.771481;0.498281;-0.196730;-0.343264
29021;2.066257;14.126333;5.472552;-0.151256;0.237050;0.660375;0.357422;-0.444092;-0.583008;0.774340;0.496931;-0.197547;-0.338278
29022;0.677060;10.015449;6.252557;-1.483446;0.908052;0.765612;0.364990;-0.437744;-0.591797;0.783913;0.488734;-0.190752;-0.332015
29023;-1.164367;5.963722;6.796481;-1.465001;0.814866;0.688996;0.370850;-0.420654;-0.600098;0.792913;0.480405;-0.184216;-0.326443
29024;-2.270377;3.425486;6.940262;-0.539386;0.156624;0.468835;0.368896;-0.410645;-0.604248;0.796500;0.476585;-0.183670;-0.323605
29025;-1.764500;3.836097;6.524833;0.550579;-0.122241;0.164393;0.370361;-0.425537;-0.599854;0.794450;0.479620;-0.186765;-0.322386
29026;-1.479601;6.197745;6.820102;0.939134;-0.109911;-0.161843;0.365479;-0.434326;-0.584961;0.790082;0.485822;-0.189346;-0.322329
29027;-1.492906;7.267667;6.292701;0.306064;-0.387105;-0.320426;0.362061;-0.431641;-0.588623;0.787413;0.487403;-0.191338;-0.325283
29028;-0.887418;7.947063;6.450326;-0.319427;-0.615167;-0.383409;0.353027;-0.434082;-0.595947;0.786614;0.484287;-0.193009;-0.330834
29029;-0.268078;8.432510;5.974537;0.142723;-0.945416;-0.381031;0.355957;-0.432861;-0.597412;0.783239;0.483327;-0.198241;-0.337095
29030;0.269879;8.903175;5.197382;0.775419;-1.221023;-0.300114;0.341797;-0.428223;-0.610107;0.777274;0.485536;-0.207060;-0.342382
29031;0.633329;8.905978;4.469378;0.745084;-1.173993;-0.189952;0.330322;-0.445557;-0.609131;0.771438;0.487247;-0.216250;-0.347433
29032;0.596289;8.624611;4.154777;0.581773;-0.880230;-0.109134;0.320557;-0.451904;-0.595215;0.766965;0.488671;-0.223318;-0.350847
29033;0.311795;8.410436;3.859031;0.641885;-0.632672;-0.085898;0.315674;-0.456543;-0.613281;0.762897;0.491245;-0.228838;-0.352561
29034;0.132939;8.270470;3.384298;0.641385;-0.437076;-0.100310;0.312988;-0.455078;-0.600830;0.758856;0.494218;-0.233373;-0.354152
29035;0.113373;8.070562;2.970394;0.425846;-0.297233;-0.114694;0.319824;-0.459961;-0.601074;0.756083;0.496265;-0.236143;-0.355381
29036;0.168965;7.877847;2.784533;0.205043;-0.214678;-0.126371;0.318848;-0.461670;-0.600586;0.754540;0.497191;-0.237493;-0.356466
29037;0.297643;7.642091;2.618358;0.107401;-0.143162;-0.130873;0.297363;-0.464844;-0.606689;0.753528;0.497725;-0.238080;-0.357469
29038;0.366763;7.279713;2.439360;0.057598;-0.120307;-0.121610;0.303711;-0.464355;-0.599121;0.752167;0.497928;-0.239039;-0.359407
29039;0.494188;6.979434;2.287747;0.066810;-0.130650;-0.102078;0.310059;-0.472656;-0.597656;0.751107;0.498203;-0.239840;-0.360705
29040;0.676216;6.899639;2.113780;0.168196;-0.154201;-0.079925;0.298584;-0.453125;-0.603516;0.749839;0.499096;-0.240957;-0.361364
29041;0.957658;7.101339;2.041090;0.257217;-0.144386;-0.038226;0.303223;-0.462158;-0.596191;0.748001;0.500218;-0.242892;-0.362326
29042;1.041081;7.335119;1.879507;0.314261;-0.058474;0.005691;0.301758;-0.471924;-0.601807;0.746472;0.501997;-0.244354;-0.362035
29043;1.100818;7.474322;1.815727;0.367421;-0.091908;0.065437;0.303955;-0.479004;-0.584229;0.744697;0.503867;-0.246563;-0.361595
29044;1.340030;7.454656;1.961070;0.322903;-0.202351;0.129045;0.295166;-0.479004;-0.597168;0.743386;0.505176;-0.249197;-0.360659
29045;1.684037;7.637317;2.024210;0.345394;-0.118912;0.120282;0.300781;-0.474854;-0.588623;0.741763;0.506690;-0.251774;-0.360087
29046;1.769381;8.394946;2.257928;0.477359;0.187365;0.061431;0.292969;-0.488281;-0.571045;0.740324;0.510057;-0.252333;-0.357898
29047;1.244228;9.409558;3.003576;0.342486;0.477932;0.022027;0.318848;-0.491943;-0.576904;0.739907;0.513721;-0.250452;-0.354827
29048;0.263391;9.692407;3.443147;-0.049276;0.550466;-0.073827;0.304443;-0.490967;-0.579590;0.741333;0.515281;-0.246298;-0.352489
29049;-0.472179;9.583460;4.169806;-0.458234;0.447394;-0.177379;0.315674;-0.488281;-0.588379;0.743442;0.514127;-0.241688;-0.352922
29050;-0.761109;9.265533;4.479212;-0.436047;0.093853;-0.258743;0.322754;-0.480469;-0.587158;0.744525;0.512196;-0.238957;-0.355300
29051;-0.533837;8.475918;3.725196;0.046830;-0.324033;-0.307336;0.317871;-0.485352;-0.587402;0.742711;0.512136;-0.239875;-0.358549
29052;0.558708;9.280440;3.107843;1.050743;-0.609439;-0.321404;0.309814;-0.487549;-0.582764;0.735873;0.517488;-0.245531;-0.361125
29053;1.981303;10.852056;2.907083;1.767733;-0.688529;-0.266551;0.311035;-0.501221;-0.565674;0.725718;0.526723;-0.254143;-0.362363
29054;2.755949;13.081885;2.735886;1.765274;-0.134354;-0.259677;0.308105;-0.511963;-0.545898;0.716804;0.537525;-0.259141;-0.360701
29055;1.571225;14.254519;2.355779;1.530534;0.476626;-0.235395;0.315430;-0.527344;-0.538330;0.710189;0.548612;-0.259830;-0.356574
29056;-0.417151;14.031511;1.727720;1.052290;0.689202;-0.229236;0.322754;-0.539551;-0.520752;0.706047;0.557344;-0.257955;-0.352598
29057;-1.548658;12.608187;1.724451;0.781616;0.528840;-0.201966;0.322998;-0.547119;-0.515625;0.702861;0.563977;-0.256260;-0.349638
29058;-1.418006;11.324701;2.562824;0.568816;0.428661;-0.106377;0.334717;-0.541260;-0.508545;0.700521;0.568791;-0.255189;-0.347312
29059;-0.989216;11.522311;3.149059;0.453886;0.553372;-0.043444;0.333740;-0.549072;-0.507324;0.699326;0.573087;-0.253201;-0.344099
29060;-0.799689;11.124018;2.929982;0.078265;0.710632;-0.073336;0.344482;-0.540039;-0.500244;0.699958;0.575650;-0.249297;-0.341374
29061;-0.541212;10.138019;3.189459;-0.733928;0.938484;-0.026982;0.346436;-0.544434;-0.501465;0.705188;0.573969;-0.241826;-0.338806
29062;-0.613861;9.642824;4.140973;-1.236615;1.157527;0.079755;0.357422;-0.532227;-0.505615;0.713348;0.569732;-0.232199;-0.335595
29063;-1.061634;9.893898;5.010917;-1.149981;1.350176;0.147623;0.373291;-0.523682;-0.505615;0.721567;0.566295;-0.221892;-0.330780
29064;-1.858710;10.181844;4.940314;-0.759250;1.369242;0.163041;0.382812;-0.528320;-0.500000;0.727996;0.565140;-0.212438;-0.324822
29065;-2.426044;10.117163;4.641719;-0.344781;0.998369;0.201643;0.394531;-0.519287;-0.502441;0.731869;0.565457;-0.206401;-0.319412
29066;-2.016718;9.191730;3.781954;-0.087297;0.498224;0.273784;0.393066;-0.518311;-0.496582;0.733808;0.565747;-0.204523;-0.315638
29067;-1.126220;8.460014;3.212486;0.207977;0.305156;0.329113;0.395996;-0.538330;-0.491211;0.734169;0.567251;-0.204826;-0.311877
29068;-0.584562;8.179421;2.850584;0.517932;0.327352;0.361287;0.391113;-0.515625;-0.482422;0.733212;0.570747;-0.205821;-0.307059
29069;-0.460081;8.077348;2.448552;0.654678;0.306328;0.385559;0.393311;-0.541992;-0.473389;0.731606;0.574804;-0.207492;-0.302160
29070;-0.323007;8.219613;2.091247;0.552920;0.223135;0.389662;0.393311;-0.537842;-0.475830;0.730352;0.578115;-0.209311;-0.297586
29071;-0.228094;8.060673;1.742036;0.183337;0.203478;0.366350;0.387207;-0.552246;-0.473877;0.730688;0.579018;-0.210415;-0.294208
29072;-0.387599;7.622278;1.581310;-0.313986;0.269557;0.315864;0.384033;-0.548096;-0.477295;0.733336;0.577194;-0.209700;-0.291705
29073;-0.636057;7.123502;1.614801;-0.600525;0.246840;0.253221;0.385742;-0.547363;-0.479492;0.737109;0.573628;-0.208196;-0.290304
29074;-0.864312;6.654993;1.628160;-0.624833;0.147097;0.196395;0.388428;-0.538574;-0.486328;0.740705;0.569775;-0.206896;-0.289665
29075;-0.888465;6.433428;1.528363;-0.571021;0.093176;0.122217;0.389160;-0.531006;-0.488525;0.743756;0.566187;-0.205731;-0.289714
29076;-1.022620;6.619330;1.357098;-0.406251;0.107632;0.001532;0.382324;-0.522705;-0.484375;0.745783;0.563850;-0.204252;-0.290108
29077;-1.331407;6.980715;1.691475;-0.369205;0.054247;-0.073494;0.390381;-0.524170;-0.494873;0.747391;0.561791;-0.202749;-0.291016
29078;-1.512965;6.798661;2.129670;-0.578877;0.012645;-0.076645;0.387695;-0.522461;-0.498047;0.749837;0.558270;-0.201084;-0.292650
29079;-1.728171;6.931766;2.183885;-0.510027;0.008295;-0.118684;0.396729;-0.517090;-0.500244;0.751840;0.555275;-0.199377;-0.294371
29080;-1.862584;7.654592;2.798935;-0.050980;-0.313343;-0.114413;0.379883;-0.516602;-0.500977;0.751256;0.554341;-0.200742;-0.296688
29081;-1.448094;8.314139;2.915714;0.195844;-0.721971;-0.059112;0.387939;-0.514893;-0.506348;0.748907;0.553908;-0.205552;-0.300121
29082;-0.722525;9.015667;2.952445;0.090032;-0.776099;-0.018926;0.369141;-0.511963;-0.511963;0.747061;0.552506;-0.210615;-0.303774
29083;-0.529539;9.745544;3.175069;-0.062516;-0.571655;0.012978;0.372070;-0.518555;-0.512207;0.746241;0.550607;-0.214260;-0.306674
29084;-0.786351;10.237222;3.003019;-0.066858;-0.646374;0.070101;0.364746;-0.515137;-0.520752;0.745536;0.548417;-0.218464;-0.309336
29085;-0.372121;10.994722;2.677538;0.341907;-0.943010;0.141563;0.348633;-0.516846;-0.515869;0.742504;0.547796;-0.225985;-0.312311
29086;0.105144;11.540774;2.665815;0.503883;-0.637963;0.174199;0.346191;-0.524170;-0.523193;0.739411;0.548953;-0.232047;-0.313171
29087;-0.296302;12.595860;4.326448;0.168745;-0.054721;0.168418;0.342773;-0.521484;-0.527588;0.738864;0.549487;-0.233753;-0.312254
29088;-0.263227;14.776063;4.247295;0.688944;-0.406168;0.115118;0.333252;-0.525391;-0.511475;0.735011;0.552325;-0.238869;-0.312470
29089;1.896255;15.991169;3.450707;1.038915;-0.739032;0.205509;0.335205;-0.548584;-0.511719;0.729202;0.556336;-0.247084;-0.312575
29090;3.085709;14.423817;3.338983;-0.208868;-0.232173;0.421573;0.325928;-0.547363;-0.519287;0.730723;0.553582;-0.249992;-0.311601
29091;1.774032;10.277811;3.946962;-1.475989;0.146485;0.613071;0.323975;-0.530762;-0.532715;0.739232;0.543599;-0.248270;-0.310480
29092;0.037873;7.122853;4.791280;-1.180701;0.084565;0.563315;0.319092;-0.522461;-0.531494;0.746035;0.535245;-0.247459;-0.309369
29093;-0.836373;5.556060;5.274370;-0.149518;-0.013590;0.346439;0.313232;-0.533203;-0.533203;0.747577;0.533573;-0.248691;-0.307539
29094;-1.287868;6.298064;5.217860;0.881705;-0.075695;-0.037874;0.316895;-0.536621;-0.540771;0.743398;0.539006;-0.251205;-0.306152
29095;-0.711746;8.664709;5.214981;1.214713;-0.368089;-0.389165;0.319092;-0.536865;-0.532715;0.735972;0.546252;-0.255099;-0.308023
29096;0.216164;10.126175;4.378237;0.410512;-0.560541;-0.463636;0.308350;-0.538574;-0.533936;0.731530;0.548119;-0.257798;-0.312999
29097;0.696238;11.056396;4.401076;-0.616988;-0.673743;-0.398886;0.309082;-0.538330;-0.535645;0.731602;0.543272;-0.258841;-0.320337
29098;0.942031;11.176326;3.937560;-0.716039;-0.798928;-0.348902;0.308838;-0.524902;-0.546143;0.732042;0.537444;-0.260385;-0.327822
29099;1.076954;10.755678;3.379527;-0.188524;-0.680543;-0.284395;0.300781;-0.532959;-0.552002;0.730507;0.534939;-0.262936;-0.333264
29100;0.766550;10.010652;3.046051;0.042667;-0.448543;-0.238005;0.307861;-0.520752;-0.554688;0.728557;0.534440;-0.264878;-0.336777
29101;0.418508;9.004202;2.872177;-0.025143;-0.350540;-0.236692;0.298584;-0.527832;-0.549316;0.727104;0.533684;-0.266104;-0.340132
29102;0.317996;8.171791;2.644695;0.099274;-0.244256;-0.274564;0.299072;-0.520264;-0.549072;0.725333;0.534234;-0.266650;-0.342612
29103;0.309375;7.928808;2.462679;0.381541;-0.086223;-0.339664;0.310303;-0.528564;-0.546875;0.722460;0.537045;-0.266770;-0.344191
29104;0.193330;7.920777;2.191360;0.491199;0.025788;-0.414361;0.300537;-0.521240;-0.549072;0.719124;0.540980;-0.266189;-0.345464
29105;0.052014;7.702422;1.826556;0.322244;0.008608;-0.475320;0.311768;-0.530762;-0.545654;0.716195;0.543904;-0.265108;-0.347780
29106;0.127034;7.463760;1.671869;0.024268;-0.112634;-0.492011;0.306641;-0.523682;-0.553711;0.714310;0.544751;-0.263770;-0.351331
29107;0.504097;7.243353;1.582961;-0.171316;-0.268532;-0.460417;0.317871;-0.517090;-0.544434;0.712925;0.543821;-0.263093;-0.356060
29108;0.916131;7.031660;1.450465;-0.236860;-0.286478;-0.417365;0.315186;-0.513916;-0.557861;0.712097;0.542435;-0.262267;-0.360415
29109;1.263179;6.985785;1.473130;-0.202614;-0.195416;-0.350620;0.319092;-0.514160;-0.546631;0.711351;0.541278;-0.261506;-0.364161
29110;1.373584;7.056988;1.444093;-0.110286;-0.101555;-0.267663;0.314697;-0.509766;-0.554688;0.710861;0.540942;-0.260514;-0.366321
29111;1.418928;7.059481;1.387842;0.023357;-0.068051;-0.151701;0.308838;-0.516846;-0.561035;0.710086;0.541183;-0.260397;-0.367549
29112;1.337702;7.069134;1.327695;0.049118;-0.025854;-0.057696;0.311279;-0.503418;-0.552246;0.709487;0.541494;-0.260627;-0.368084
29113;1.310342;7.417925;1.438856;0.051810;0.000567;-0.004382;0.311035;-0.510010;-0.552734;0.709218;0.541809;-0.260810;-0.368009
29114;1.416183;7.844803;1.566830;0.084865;-0.040461;0.050665;0.311035;-0.502197;-0.555176;0.708872;0.542093;-0.261584;-0.367708
29115;1.605852;8.401327;1.715430;0.128932;0.035453;0.101764;0.313477;-0.518799;-0.555176;0.708602;0.542681;-0.262365;-0.366804
29116;1.627177;9.304225;2.177408;0.186195;0.250265;0.122926;0.319336;-0.514893;-0.548584;0.708601;0.544260;-0.262130;-0.364628
29117;1.181522;10.113528;2.536332;0.155827;0.480356;0.098775;0.318604;-0.511230;-0.547363;0.709216;0.546397;-0.260278;-0.361550
29118;0.497029;11.136184;3.003106;-0.014846;0.521912;0.058359;0.322021;-0.516113;-0.546387;0.710525;0.547696;-0.257534;-0.358970
29119;-0.070229;11.918055;3.145587;-0.115609;0.327787;0.028570;0.322266;-0.518555;-0.547607;0.711761;0.547882;-0.255515;-0.357677
29120;-0.225324;11.541167;2.981645;-0.093873;0.129515;-0.004411;0.330078;-0.513672;-0.548828;0.712351;0.547681;-0.254607;-0.357459
29121;0.722086;11.378545;4.030322;0.030792;-0.104115;0.027976;0.330566;-0.513672;-0.539795;0.711960;0.547402;-0.255647;-0.357922
29122;1.038486;12.565756;4.045856;0.445473;-0.086074;0.007209;0.329590;-0.520508;-0.542480;0.709778;0.549763;-0.257535;-0.357284
29123;0.104075;11.838518;3.236519;0.573457;0.383339;-0.002009;0.324951;-0.519775;-0.540527;0.707896;0.554238;-0.257091;-0.354412
29124;-0.785553;12.637457;3.479603;0.695150;0.223701;0.047852;0.329590;-0.529053;-0.531250;0.705172;0.558796;-0.258257;-0.351828
29125;-1.623776;11.937693;2.758358;1.033809;0.319811;0.000495;0.336426;-0.540039;-0.514404;0.700926;0.565713;-0.259578;-0.348269
29126;-2.018997;10.957519;2.553794;0.811452;0.437103;-0.071067;0.339600;-0.547119;-0.514404;0.697798;0.571837;-0.259103;-0.344884
29127;-1.983831;9.503951;2.756664;0.475229;0.335288;-0.100304;0.344482;-0.549561;-0.499756;0.695818;0.575665;-0.258299;-0.343116
29128;-1.326267;9.486096;3.301363;0.383136;0.045548;-0.112707;0.344482;-0.553711;-0.505127;0.693714;0.578224;-0.258679;-0.342786
29129;-0.308582;10.016380;3.111160;0.327329;-0.087585;-0.129772;0.346436;-0.550781;-0.490967;0.691424;0.580032;-0.259764;-0.343538
29130;0.211620;10.132566;3.120250;-0.359239;0.370105;-0.129188;0.343506;-0.552002;-0.504883;0.693586;0.579284;-0.256008;-0.343262
29131;-0.124565;10.138240;3.888770;-1.227408;0.671761;-0.072035;0.354736;-0.541260;-0.505859;0.700544;0.574138;-0.248501;-0.343295
29132;-0.724738;9.898671;4.455746;-1.603184;0.655653;0.040374;0.361084;-0.516602;-0.520508;0.709542;0.566463;-0.240397;-0.343336
29133;-1.305973;9.217090;4.561040;-1.600288;0.526775;0.172372;0.364014;-0.510742;-0.526611;0.718446;0.557978;-0.233744;-0.343307
29134;-1.627926;8.819986;4.045815;-0.790692;0.274967;0.144539;0.359619;-0.507812;-0.536621;0.722988;0.553675;-0.230641;-0.342837
29135;-1.455900;8.925063;3.648089;0.398946;-0.016779;0.173309;0.349854;-0.509033;-0.530029;0.721500;0.555631;-0.232869;-0.341298
29136;-0.648297;9.332784;3.185457;0.944325;-0.197514;0.257204;0.355225;-0.515625;-0.528809;0.717417;0.560227;-0.237992;-0.338850
29137;0.076413;9.466418;2.694918;0.716273;-0.062107;0.322234;0.357178;-0.530273;-0.513672;0.714710;0.563572;-0.242135;-0.336076
29138;0.253155;9.478411;2.378458;0.380575;0.124591;0.368569;0.354736;-0.528320;-0.509766;0.714171;0.565409;-0.244264;-0.332577
29139;0.169163;9.335546;2.015038;0.193881;0.148359;0.420806;0.348389;-0.545654;-0.508301;0.714691;0.566064;-0.245989;-0.329057
29140;0.006385;8.909436;1.675149;-0.020426;0.233296;0.414013;0.345215;-0.546143;-0.515381;0.716371;0.565729;-0.246551;-0.325539
29141;-0.238480;8.131453;1.528105;-0.324036;0.322183;0.366702;0.357178;-0.535400;-0.516113;0.719438;0.563842;-0.245675;-0.322698
29142;-0.448839;7.283276;1.527246;-0.502425;0.301519;0.324012;0.348389;-0.533691;-0.521484;0.723134;0.560823;-0.244323;-0.320721
29143;-0.584621;6.770691;1.461165;-0.437859;0.278875;0.260882;0.350586;-0.540039;-0.522461;0.726295;0.558274;-0.242958;-0.319057
29144;-0.744560;6.569863;1.517154;-0.143385;0.309339;0.183247;0.349609;-0.536133;-0.519531;0.727945;0.557765;-0.241792;-0.317065
29145;-1.028307;6.584953;1.514424;0.050324;0.316901;0.130030;0.348145;-0.535645;-0.517090;0.728602;0.558580;-0.240779;-0.314887
29146;-1.272256;6.697189;1.426823;0.087430;0.226053;0.082514;0.346680;-0.551758;-0.518311;0.728792;0.559493;-0.240158;-0.313296
29147;-1.453247;6.899696;1.670606;0.088626;0.193606;0.027109;0.354980;-0.545898;-0.518066;0.728756;0.560465;-0.239476;-0.312161
29148;-1.603071;7.340152;2.021109;0.117217;0.039257;-0.027648;0.345703;-0.535889;-0.511719;0.728088;0.561257;-0.239643;-0.312169
29149;-1.418728;7.933676;2.268389;0.143688;-0.304454;-0.052950;0.347412;-0.533691;-0.518311;0.726631;0.561433;-0.241682;-0.313671
29150;-0.786904;8.527076;2.348020;-0.021353;-0.500966;-0.088227;0.346680;-0.548340;-0.510254;0.725373;0.560093;-0.244444;-0.316822
29151;-0.322238;9.067233;2.547367;-0.219783;-0.373275;-0.126338;0.348389;-0.541504;-0.517822;0.725301;0.558061;-0.245531;-0.319720
29152;-0.450476;9.362289;2.811941;-0.312715;-0.311088;-0.086170;0.345459;-0.539062;-0.528809;0.725836;0.555494;-0.246265;-0.322401
29153;-0.861688;9.871553;3.201397;-0.206140;-0.688171;0.007000;0.338623;-0.535645;-0.526123;0.725287;0.552320;-0.250067;-0.326140
29154;-0.623989;10.417226;2.691397;0.108176;-1.079121;0.081210;0.322021;-0.540527;-0.537109;0.722715;0.549854;-0.257282;-0.330378
29155;-0.295404;10.959187;2.558293;0.333460;-0.649052;0.088245;0.318604;-0.544189;-0.536133;0.719979;0.549874;-0.262581;-0.332144
29156;-0.481184;12.543655;3.545841;0.529553;-0.270941;0.064690;0.319824;-0.534912;-0.535889;0.717088;0.552150;-0.266033;-0.331875
29157;0.231888;14.749436;3.257701;1.101604;-0.516439;0.080720;0.309814;-0.548096;-0.519043;0.710983;0.557036;-0.272664;-0.331465
29158;1.960027;16.450897;2.533821;1.168029;-0.519891;0.169987;0.302002;-0.569336;-0.514648;0.704819;0.562128;-0.279731;-0.330141
29159;2.671491;15.027371;2.451416;0.047411;-0.245985;0.319842;0.292969;-0.573730;-0.516357;0.704883;0.561002;-0.282826;-0.329282
29160;1.557591;11.097303;3.233501;-1.140515;-0.017567;0.439200;0.297607;-0.559326;-0.533936;0.711327;0.553219;-0.281859;-0.329422
29161;0.304342;7.997000;3.938594;-0.928163;0.078094;0.356336;0.289551;-0.551758;-0.548584;0.716676;0.547028;-0.280603;-0.329237
29162;-0.494647;6.541736;4.540303;-0.085509;0.088247;0.098970;0.294434;-0.545654;-0.538330;0.717453;0.546460;-0.280455;-0.328615
29163;-0.853324;7.158651;4.924445;0.487619;0.112005;-0.225865;0.299805;-0.559326;-0.533203;0.714842;0.550178;-0.280153;-0.328358
29164;-1.138681;8.942051;4.808301;0.612539;-0.070512;-0.462294;0.293945;-0.563721;-0.534180;0.710560;0.554686;-0.280187;-0.330034
29165;-0.851484;9.797106;4.292242;-0.306005;-0.548265;-0.518698;0.300293;-0.552246;-0.537598;0.709204;0.552543;-0.280276;-0.336410
29166;0.027677;10.127313;4.404132;-1.433462;-1.022918;-0.515003;0.291992;-0.533203;-0.555176;0.711850;0.542309;-0.279980;-0.347537
29167;0.700838;10.013184;4.316332;-1.556059;-1.127463;-0.529047;0.283936;-0.518311;-0.571777;0.714597;0.530947;-0.279793;-0.359391
29168;0.964838;9.448836;3.789572;-0.698476;-0.991511;-0.555337;0.274414;-0.516846;-0.583740;0.713665;0.525077;-0.281162;-0.368680
29169;1.120838;9.165720;3.373415;0.133473;-0.902192;-0.516646;0.279053;-0.518311;-0.583496;0.709344;0.524300;-0.284698;-0.375351
29170;1.178742;8.947285;3.089593;0.328481;-0.787194;-0.460489;0.267090;-0.511475;-0.580322;0.704579;0.524869;-0.288375;-0.380684
29171;1.141580;8.596025;2.841871;0.245616;-0.558376;-0.419877;0.273926;-0.518799;-0.585938;0.700849;0.525570;-0.290574;-0.384908
29172;0.868512;8.352235;2.658268;0.287199;-0.343980;-0.389348;0.265625;-0.504639;-0.586182;0.697500;0.527083;-0.291823;-0.387964
29173;0.552196;8.399397;2.451084;0.455184;-0.200485;-0.383837;0.261963;-0.522461;-0.583496;0.693776;0.529992;-0.292796;-0.389942
29174;0.267517;8.401698;2.293939;0.407663;-0.113186;-0.384661;0.277344;-0.519775;-0.576172;0.690428;0.532923;-0.293111;-0.391648
29175;0.126315;8.180982;2.102816;0.110608;-0.160547;-0.362854;0.266602;-0.524658;-0.577148;0.688379;0.533927;-0.292786;-0.394123
29176;0.116701;7.861458;2.026347;-0.211558;-0.255402;-0.341795;0.278076;-0.522949;-0.580811;0.687563;0.532723;-0.292059;-0.397700
29177;0.462673;7.701217;1.982050;-0.238945;-0.377164;-0.323790;0.271484;-0.508545;-0.583008;0.686627;0.530897;-0.292010;-0.401774
29178;0.809019;7.639194;1.859155;-0.021910;-0.429140;-0.277471;0.268799;-0.519531;-0.591309;0.684765;0.530010;-0.293172;-0.405261
29179;1.204360;7.754542;1.765233;0.120091;-0.407689;-0.214259;0.265381;-0.511475;-0.599121;0.682485;0.529836;-0.295009;-0.407992
29180;1.360389;7.800047;1.591173;0.121804;-0.372525;-0.114917;0.269531;-0.520996;-0.589111;0.680615;0.529508;-0.297104;-0.410017
29181;1.356145;7.701254;1.523270;-0.009071;-0.244014;-0.047391;0.258301;-0.517090;-0.589111;0.679888;0.528750;-0.298273;-0.411351
29182;1.427507;7.683940;1.505536;-0.027453;-0.258521;0.046733;0.262695;-0.521484;-0.593750;0.679519;0.527602;-0.299881;-0.412264
29183;1.605513;7.978082;1.557631;0.093227;-0.269251;0.121372;0.254639;-0.510254;-0.599854;0.678845;0.526904;-0.302296;-0.412503
29184;1.814788;8.276389;1.613005;0.155215;-0.125780;0.152855;0.252930;-0.521484;-0.598389;0.678381;0.526937;-0.304254;-0.411784
29185;1.668190;8.387816;1.720729;0.089522;0.201117;0.154409;0.255859;-0.526123;-0.587402;0.679019;0.527727;-0.304151;-0.409792
29186;1.279491;8.720925;1.956361;0.080153;0.439096;0.128105;0.254395;-0.520264;-0.588135;0.680221;0.529368;-0.302520;-0.406878
29187;1.012545;8.735289;2.227077;0.025669;0.435942;0.092798;0.261719;-0.523682;-0.592285;0.681531;0.530754;-0.300569;-0.404319
29188;0.991164;9.577577;2.328596;0.084049;0.363466;0.046299;0.257568;-0.518555;-0.581055;0.682234;0.532323;-0.299029;-0.402208
29189;0.960543;10.929826;2.477033;0.318596;0.301451;-0.023764;0.262451;-0.521240;-0.577148;0.681510;0.535204;-0.298292;-0.400154
29190;0.692171;11.266245;2.111311;0.333475;0.388945;-0.038687;0.275391;-0.532959;-0.574707;0.680883;0.538488;-0.297032;-0.397746
29191;0.964922;10.260591;1.858521;0.238094;0.308257;0.025809;0.270264;-0.537842;-0.575684;0.680686;0.540798;-0.296198;-0.395564
29192;2.142079;10.431452;3.080533;0.216957;0.128778;0.162659;0.269531;-0.545654;-0.579590;0.680552;0.542044;-0.296964;-0.393509
29193;1.926725;13.908037;3.808290;0.567732;0.382241;0.060198;0.282227;-0.545410;-0.567627;0.679097;0.546343;-0.296996;-0.390039
29194;0.181723;13.301178;3.086335;0.281741;1.413281;-0.107609;0.284668;-0.552734;-0.552002;0.680949;0.552749;-0.289415;-0.383427
29195;-1.913837;13.243364;2.487409;0.338126;1.411906;-0.118101;0.298828;-0.544434;-0.551514;0.682357;0.559430;-0.281964;-0.376726
29196;-2.627721;11.146446;1.991934;0.719813;0.995587;-0.051531;0.307129;-0.558594;-0.548096;0.681164;0.566721;-0.278341;-0.370634
29197;-1.840291;9.515527;1.999947;0.557806;0.680109;0.050667;0.318359;-0.562256;-0.524414;0.680236;0.571828;-0.276502;-0.365840
29198;-0.717378;9.061890;2.426655;0.710838;0.487924;0.057012;0.324219;-0.568848;-0.526367;0.678148;0.577203;-0.276180;-0.361493
29199;-0.209939;8.886972;2.444877;0.458021;0.883444;-0.002778;0.331055;-0.578613;-0.501221;0.677969;0.582424;-0.272567;-0.356157
29200;-0.514394;9.323489;2.618681;-0.108847;1.372355;-0.022358;0.343018;-0.567871;-0.502686;0.681517;0.585908;-0.264373;-0.349790
29201;-1.130124;9.987304;3.404640;-0.548041;1.329673;0.043006;0.356201;-0.572021;-0.505371;0.687236;0.586530;-0.255412;-0.344172
29202;-1.244092;10.082832;4.246338;-1.204491;1.152100;0.218278;0.357910;-0.558350;-0.508057;0.696158;0.582406;-0.246414;-0.339776
29203;-1.456605;10.022948;4.599192;-1.575918;1.158150;0.302478;0.366699;-0.550049;-0.513184;0.706974;0.575834;-0.236678;-0.335541
29204;-2.099471;9.530379;4.549638;-1.497693;1.103056;0.336746;0.380859;-0.543213;-0.527832;0.717217;0.569353;-0.227585;-0.331122
29205;-2.637347;9.295264;4.283720;-0.634311;0.764602;0.316319;0.376953;-0.530273;-0.518799;0.722554;0.567039;-0.222760;-0.326742
29206;-1.989360;9.160127;3.839635;0.319768;0.393277;0.367568;0.382568;-0.535400;-0.519043;0.722802;0.569339;-0.222987;-0.322005
29207;-1.184817;9.163154;3.562513;0.623121;0.381439;0.421080;0.379150;-0.540771;-0.512939;0.721710;0.573309;-0.224337;-0.316425
29208;-1.092667;9.091784;3.315459;0.497063;0.538782;0.419512;0.375732;-0.550781;-0.506836;0.721473;0.576909;-0.224391;-0.310326
29209;-1.343284;9.160770;3.068122;0.487965;0.443746;0.415801;0.387207;-0.569092;-0.494629;0.721048;0.580189;-0.224978;-0.304723
29210;-1.223274;9.313386;2.607367;0.583594;0.251576;0.424363;0.376953;-0.568604;-0.477051;0.719793;0.583524;-0.226984;-0.299793
29211;-0.777007;9.262330;2.014033;0.297693;0.210246;0.428935;0.375488;-0.578125;-0.489746;0.719837;0.585018;-0.228538;-0.295566
29212;-0.547085;8.862301;1.651099;-0.156800;0.304841;0.410435;0.375000;-0.575439;-0.483887;0.722212;0.584032;-0.228321;-0.291865
29213;-0.693325;8.130228;1.653103;-0.447190;0.399774;0.391955;0.376709;-0.577148;-0.484131;0.726121;0.581552;-0.226720;-0.288347
29214;-0.811264;7.516569;1.530267;-0.296258;0.391313;0.371038;0.367188;-0.579590;-0.492188;0.729207;0.579989;-0.225423;-0.284702
29215;-0.922031;7.164251;1.407753;0.050243;0.441015;0.342557;0.368896;-0.576416;-0.481934;0.730614;0.580681;-0.224528;-0.280357
29216;-1.099297;7.306357;1.436252;0.341797;0.525267;0.308767;0.378174;-0.577637;-0.473633;0.730674;0.583398;-0.223616;-0.275242
29217;-1.310777;7.581658;1.332113;0.480630;0.535985;0.278722;0.369873;-0.591309;-0.460693;0.729991;0.587023;-0.222781;-0.269974
29218;-1.383404;7.742442;1.359886;0.446956;0.518337;0.263732;0.375488;-0.594971;-0.459961;0.729358;0.590407;-0.221927;-0.264961
29219;-1.457040;7.788551;1.463842;0.302593;0.486126;0.258210;0.376465;-0.605469;-0.456055;0.729346;0.592833;-0.220904;-0.260394
29220;-1.458729;7.776503;1.532693;0.203083;0.454973;0.259222;0.381836;-0.605713;-0.445068;0.729745;0.594570;-0.219864;-0.256161
29221;-1.397652;7.835987;1.798391;0.108478;0.421321;0.254507;0.381348;-0.606689;-0.444092;0.730531;0.595662;-0.218784;-0.252281
29222;-1.309187;8.053632;2.018060;0.062338;0.382124;0.250065;0.382080;-0.605957;-0.444336;0.731452;0.596387;-0.217821;-0.248705
29223;-1.137546;8.475063;1.900543;0.168202;0.306060;0.254941;0.383301;-0.614014;-0.448975;0.731710;0.597582;-0.217559;-0.245283
29224;-1.050119;9.233053;1.758738;0.349451;0.315950;0.252432;0.383057;-0.610596;-0.439941;0.731066;0.599894;-0.217594;-0.241500
29225;-1.250287;9.853699;1.833658;0.428749;0.332721;0.268501;0.387207;-0.623535;-0.433105;0.730072;0.602683;-0.217755;-0.237382
29226;-1.203497;10.602033;2.440519;0.295483;0.351662;0.293867;0.379883;-0.629150;-0.426270;0.729811;0.604642;-0.217660;-0.233253
29227;-0.705303;12.311305;2.897724;0.367456;0.383905;0.302273;0.382324;-0.627930;-0.415771;0.729241;0.607070;-0.217560;-0.228783
29228;-0.052493;12.906594;2.509066;0.454000;0.422390;0.372235;0.376709;-0.638916;-0.407959;0.728414;0.609955;-0.217727;-0.223524
29229;0.980902;13.503899;3.712736;-0.408880;0.414058;0.507286;0.382812;-0.632324;-0.413330;0.732178;0.607315;-0.217027;-0.219051
29230;2.927154;12.700697;3.471258;-0.902165;-0.179727;0.703201;0.374268;-0.630859;-0.427246;0.737679;0.600189;-0.220007;-0.217254
29231;5.078813;12.670067;3.625652;-0.811310;-0.248004;0.962678;0.360107;-0.634766;-0.432129;0.742998;0.592957;-0.224845;-0.214011
29232;5.682644;12.182204;3.321520;-0.931113;1.020446;1.000004;0.351074;-0.643311;-0.447998;0.751233;0.587082;-0.221770;-0.204454
29233;2.693288;10.091836;3.704656;-1.567408;2.223016;0.896348;0.358643;-0.622559;-0.433838;0.764342;0.579226;-0.209501;-0.190759
29234;0.663346;9.779448;4.179272;-1.272555;1.955502;0.852626;0.370850;-0.623535;-0.439941;0.775106;0.572617;-0.199075;-0.178014
29235;1.192861;10.568690;3.687462;-0.559812;1.450761;0.800786;0.375000;-0.625488;-0.432617;0.781308;0.569766;-0.192647;-0.166770
29236;1.232405;10.280155;3.023692;-0.742682;1.867358;0.759237;0.377441;-0.619873;-0.435791;0.788777;0.566221;-0.183001;-0.154064
29237;0.052468;9.156111;3.408809;-0.887761;2.146937;0.820620;0.387939;-0.622070;-0.413574;0.797148;0.561764;-0.171555;-0.139804
29238;-0.349580;8.082859;3.552653;-0.471537;2.023916;0.900742;0.400879;-0.623535;-0.421143;0.803161;0.559620;-0.161711;-0.124930
29239;-0.180227;7.775704;3.517680;0.032549;2.100289;0.906769;0.399658;-0.639160;-0.410645;0.806655;0.560702;-0.151832;-0.108939
29240;-0.193692;7.987591;3.165803;0.337149;2.291811;0.841469;0.406494;-0.645020;-0.386475;0.808588;0.563861;-0.140605;-0.092067
29241;-0.154508;8.415784;2.710648;0.554187;2.370742;0.766967;0.410889;-0.644531;-0.364990;0.809177;0.568389;-0.128593;-0.075031
29242;-0.168601;9.016176;2.311143;0.722313;2.303180;0.733369;0.418457;-0.654297;-0.343994;0.808517;0.573782;-0.116921;-0.058339
29243;-0.011349;9.491638;2.066313;0.796732;2.227795;0.717373;0.426270;-0.656494;-0.314209;0.807069;0.579404;-0.105662;-0.042023
29244;0.355030;9.842724;1.696859;0.820163;2.226433;0.710981;0.435791;-0.678467;-0.291992;0.805153;0.584953;-0.094323;-0.025727
29245;0.778661;10.214544;1.391122;0.770631;2.417112;0.725334;0.429688;-0.697754;-0.267578;0.803256;0.589940;-0.081726;-0.008431
29246;1.003147;10.345012;1.120625;0.649127;2.704621;0.752168;0.429443;-0.699951;-0.237549;0.801727;0.593795;-0.067328;0.010395
29247;0.672815;9.918233;0.703606;0.316660;3.079825;0.781224;0.433594;-0.691895;-0.213623;0.801531;0.595002;-0.050550;0.031069
29248;-0.018955;9.492008;0.605353;0.121243;3.340948;0.805349;0.440918;-0.706299;-0.186035;0.801800;0.594364;-0.032146;0.053056
29249;-0.626242;9.388938;0.834561;0.056412;3.394754;0.828966;0.452148;-0.711426;-0.168701;0.801712;0.592781;-0.013494;0.075407
29250;-0.640522;9.599787;1.073870;-0.004604;3.340084;0.870147;0.433594;-0.717773;-0.146484;0.801234;0.590311;0.004571;0.097647
29251;-0.548429;9.708454;1.268168;-0.168912;3.356327;0.938882;0.438232;-0.734375;-0.120850;0.800843;0.586225;0.022218;0.120402
29252;-0.608943;9.630237;1.540165;-0.479711;3.482159;0.983319;0.438232;-0.735107;-0.103271;0.801175;0.579453;0.040176;0.144012
29253;-0.647412;9.400135;1.898938;-0.757485;3.513187;1.041850;0.419678;-0.739990;-0.086182;0.802011;0.570260;0.057697;0.168086
29254;-0.662600;9.130574;2.242598;-0.798820;3.496751;1.065314;0.420166;-0.743896;-0.059814;0.802231;0.560271;0.074865;0.192139
29255;-0.977617;8.949307;2.489314;-0.632962;3.556034;1.026947;0.412354;-0.753174;-0.049561;0.800893;0.550765;0.092842;0.215889
29256;-1.541288;8.872276;2.834429;-0.552439;3.494758;0.980164;0.407715;-0.760010;-0.035645;0.798571;0.541317;0.110658;0.238778
29257;-1.895424;8.673736;3.215930;-0.609309;3.201798;0.964480;0.400146;-0.761963;-0.024902;0.796120;0.531582;0.126386;0.260077
29258;-1.775462;8.303734;3.558463;-0.624302;2.836056;0.966272;0.385254;-0.770996;-0.018311;0.793541;0.522152;0.139555;0.279597
29259;-1.286647;7.981472;3.631175;-0.431738;2.511223;0.975255;0.368896;-0.779785;0.001709;0.790012;0.514453;0.150898;0.297403
29260;-1.058894;7.516040;3.372965;-0.235959;2.296653;0.989858;0.360107;-0.783447;0.013672;0.785480;0.508364;0.161194;0.314011
29261;-0.851717;7.248967;3.149252;-0.086132;2.102957;0.974291;0.344238;-0.790527;0.018066;0.780303;0.503531;0.170618;0.329353
29262;-0.377897;7.049292;2.731116;0.201701;1.843944;0.964150;0.333740;-0.795166;0.032471;0.774056;0.501083;0.179121;0.343029
29263;0.311718;7.178423;2.385028;0.436315;1.743870;0.965281;0.326172;-0.790527;0.044189;0.766743;0.500293;0.187600;0.355835
29264;0.975088;8.454753;3.000510;0.573345;1.902418;0.942566;0.309570;-0.803955;0.062012;0.758446;0.499717;0.197533;0.368814
29265;1.287907;10.750806;3.409932;0.615005;2.237312;0.856717;0.295654;-0.811279;0.074463;0.749388;0.498046;0.209990;0.382456
29266;0.346976;12.290934;1.564982;0.689892;2.521195;0.766155;0.278809;-0.799561;0.107666;0.739463;0.495541;0.224727;0.396397
29267;-0.820975;12.219886;0.168899;0.816101;2.572117;0.738716;0.255371;-0.817871;0.135498;0.728605;0.493355;0.240205;0.409923
29268;-1.143746;10.524399;-0.052141;0.349915;2.788387;0.793637;0.253418;-0.802490;0.149170;0.718618;0.487429;0.255032;0.425394
29269;-1.711541;9.361082;0.832931;0.173855;3.579924;0.791761;0.243408;-0.820801;0.160889;0.707149;0.477267;0.273789;0.444067
29270;-2.836824;9.376870;2.368100;0.163015;4.245619;0.758762;0.212891;-0.816406;0.177002;0.693536;0.463965;0.296247;0.464739
29271;-3.825145;9.886792;2.921737;-0.051504;4.256877;0.710533;0.195557;-0.818848;0.188232;0.680000;0.448660;0.317748;0.485119
29272;-4.502004;10.357292;2.570239;-0.291843;3.907854;0.683236;0.171387;-0.823975;0.194092;0.667585;0.432790;0.336029;0.504092
29273;-5.097913;10.269711;2.677014;-0.585572;3.255073;0.753004;0.149658;-0.832764;0.192627;0.657120;0.417806;0.348882;0.521452
29274;-4.711219;9.846549;2.834489;-0.616216;2.552419;0.832958;0.131104;-0.831543;0.197021;0.648016;0.405656;0.357253;0.536553
29275;-3.867876;10.122408;2.639461;0.273393;2.039341;0.851861;0.107178;-0.836670;0.201172;0.637057;0.400484;0.366625;0.547135
29276;-3.056855;10.792328;2.158057;0.988802;1.711733;0.842646;0.095947;-0.830566;0.224609;0.624537;0.400431;0.377428;0.554218
29277;-2.426166;10.963823;1.549739;0.860010;1.723701;0.827536;0.082031;-0.833252;0.229492;0.612282;0.399481;0.387642;0.561479
29278;-2.146894;10.475803;1.200936;0.318453;2.006408;0.791525;0.064941;-0.831543;0.233887;0.600892;0.394192;0.396756;0.571074
29279;-2.386020;9.947944;1.182769;0.127223;2.149019;0.770543;0.044434;-0.824951;0.248047;0.589543;0.387062;0.405612;0.581465
29280;-2.573728;9.553227;1.099139;0.324931;2.160077;0.769125;0.023193;-0.830811;0.254150;0.577297;0.380707;0.415344;0.590999
29281;-2.636097;9.484769;0.983522;0.518957;2.196295;0.744514;0.002197;-0.825684;0.260742;0.564207;0.374868;0.426124;0.599635
29282;-2.866527;9.437061;0.885786;0.391593;2.318912;0.701637;-0.017822;-0.824707;0.256348;0.551061;0.367511;0.436809;0.608659
29283;-3.456540;9.084469;0.978680;0.020109;2.307083;0.666615;-0.036621;-0.822754;0.266602;0.539044;0.358220;0.445483;0.618591
29284;-3.856417;8.581793;1.413420;-0.301682;1.974905;0.674803;-0.051270;-0.830078;0.252930;0.528974;0.349108;0.450839;0.628534
29285;-3.740059;8.345069;1.685814;-0.379269;1.548353;0.701833;-0.072266;-0.823975;0.246094;0.520455;0.341882;0.453708;0.637489
29286;-3.338318;8.425030;1.791886;-0.243092;1.345085;0.681443;-0.080322;-0.827637;0.246094;0.512310;0.336188;0.456401;0.645146
29287;-3.330682;8.571431;1.769988;-0.096312;1.268865;0.634114;-0.092285;-0.827637;0.245117;0.504226;0.331298;0.459629;0.651720
29288;-3.334302;8.794716;1.620414;-0.068241;1.089872;0.605421;-0.105957;-0.820801;0.234863;0.496833;0.327342;0.462282;0.657495
29289;-3.198048;9.061083;1.829792;-0.208953;0.862989;0.587282;-0.118164;-0.819092;0.220215;0.490744;0.323938;0.463231;0.663062
29290;-2.977488;8.962323;1.811856;-0.502282;0.653142;0.566397;-0.134033;-0.818604;0.220947;0.486333;0.320378;0.461722;0.669067
29291;-2.635545;8.772101;1.813199;-0.657422;0.502288;0.548214;-0.134277;-0.823975;0.215088;0.482960;0.316958;0.458773;0.675140
29292;-2.320813;8.742421;2.122438;-0.561662;0.432706;0.546805;-0.152100;-0.829102;0.200928;0.479602;0.314284;0.456063;0.680598
29293;-2.051224;8.720937;2.225756;-0.427092;0.425593;0.553046;-0.164795;-0.834229;0.202148;0.475832;0.312182;0.454038;0.685548
29294;-1.845339;8.603601;2.159746;-0.362812;0.433882;0.555196;-0.166016;-0.818115;0.202637;0.471821;0.310297;0.452403;0.690241
29295;-1.878424;8.451863;2.378364;-0.417687;0.471362;0.554188;-0.168701;-0.825439;0.184814;0.467806;0.307968;0.450590;0.695185
29296;-2.156571;8.376750;2.386076;-0.417377;0.530703;0.562243;-0.185059;-0.819824;0.181641;0.463510;0.305283;0.448950;0.700289
29297;-2.359183;8.747260;2.375796;-0.057011;0.442047;0.558200;-0.188721;-0.820557;0.183105;0.458598;0.304494;0.449073;0.703779
29298;-2.070926;9.563752;2.316180;0.386674;0.231667;0.539475;-0.194092;-0.819580;0.181885;0.453454;0.306550;0.451032;0.704966
29299;-1.433207;10.799814;2.540508;0.491514;0.119267;0.501834;-0.202881;-0.815918;0.185303;0.448670;0.309498;0.453260;0.705310
29300;-0.528324;13.274039;3.678202;0.334741;0.104181;0.483465;-0.214111;-0.813477;0.192383;0.444433;0.311869;0.454547;0.706119
29301;1.420750;16.543310;2.511594;0.933406;-0.250756;0.484933;-0.217529;-0.807373;0.203369;0.439941;0.318541;0.458023;0.703704
29302;3.268041;16.001888;2.212809;0.206486;0.040696;0.394980;-0.221191;-0.796387;0.209229;0.436784;0.320475;0.458520;0.704468
29303;1.769896;12.739202;4.441266;-1.766172;1.321158;0.408840;-0.230469;-0.808105;0.178955;0.433833;0.307726;0.451984;0.716104
29304;-0.993218;8.727929;6.018689;-1.844547;1.604412;0.440706;-0.237549;-0.810791;0.151367;0.429661;0.292999;0.445736;0.728603
29305;-2.191000;6.327545;5.317293;-0.366691;0.935188;0.302470;-0.249023;-0.814209;0.143066;0.425095;0.287049;0.446292;0.733294
29306;-2.050654;5.873080;4.728185;1.061289;0.544819;0.127596;-0.252686;-0.804932;0.156982;0.419579;0.287864;0.454565;0.731066
29307;-1.295272;7.144774;4.751349;1.566233;0.438548;0.040773;-0.258301;-0.805176;0.177246;0.413721;0.290723;0.465688;0.726257
29308;-0.779443;8.733869;4.937107;1.243479;0.367810;-0.011129;-0.257080;-0.795410;0.189209;0.409171;0.292644;0.474666;0.722240
29309;-0.605170;9.535885;4.603187;0.233170;0.241560;-0.104832;-0.253906;-0.797852;0.186768;0.408131;0.291484;0.477326;0.721544
29310;-0.192917;9.513656;4.368086;-0.654555;-0.097773;-0.029979;-0.256592;-0.801514;0.185791;0.410156;0.289624;0.473294;0.723797
29311;0.641401;10.132553;4.263500;-0.577184;-0.398868;0.070876;-0.253906;-0.805664;0.177734;0.412539;0.290261;0.468457;0.725333
29312;1.430766;10.292582;3.752804;-0.139133;-0.246859;0.094072;-0.255127;-0.801514;0.169678;0.413139;0.291558;0.466717;0.725593
29313;1.311374;9.722302;3.449268;-0.154802;0.158182;0.099811;-0.252441;-0.791016;0.184326;0.412159;0.290360;0.466244;0.726934
29314;0.751430;9.073198;3.427329;-0.071715;0.304891;0.112116;-0.255615;-0.799072;0.175293;0.410324;0.288670;0.466786;0.728296
29315;0.353821;8.858891;3.397420;0.177224;0.342941;0.073090;-0.263672;-0.795166;0.172363;0.407987;0.287402;0.469029;0.728669
29316;0.141462;8.659894;3.090097;0.244124;0.411074;-0.007130;-0.266113;-0.804443;0.179688;0.405678;0.285626;0.472088;0.728681
29317;0.011866;8.357834;2.613069;0.160952;0.356159;-0.052737;-0.257080;-0.801025;0.173096;0.404065;0.283731;0.474568;0.728707
29318;0.163522;7.994875;2.367336;-0.030988;0.131452;-0.046801;-0.259277;-0.800781;0.167969;0.403794;0.282555;0.475094;0.728971
29319;0.444884;7.699593;2.059390;-0.275974;-0.082096;-0.013973;-0.263916;-0.794434;0.174561;0.404723;0.281977;0.473331;0.729826
29320;0.652462;7.600457;2.000587;-0.331731;-0.113341;-0.027367;-0.254150;-0.802979;0.165283;0.405942;0.281393;0.471179;0.730766
29321;0.701004;7.412985;1.935806;-0.276547;0.013825;-0.055920;-0.259277;-0.802734;0.164062;0.406771;0.280074;0.469838;0.731675
29322;0.737873;7.265587;1.841022;-0.220742;0.119042;-0.072991;-0.263428;-0.802002;0.158691;0.407115;0.278252;0.469238;0.732563
29323;0.895237;7.205952;1.737969;-0.184597;0.062809;-0.042088;-0.252686;-0.792480;0.161621;0.407380;0.277011;0.468590;0.733301
29324;1.122625;7.181106;1.740717;-0.197451;0.051099;0.021227;-0.256104;-0.801025;0.153076;0.407377;0.276075;0.467693;0.734227
29325;1.422084;7.282317;1.979018;-0.299851;0.139443;0.079473;-0.261963;-0.801758;0.148193;0.406903;0.274441;0.466310;0.735980
29326;1.334680;7.434054;2.248741;-0.282310;0.196139;0.125483;-0.272217;-0.805176;0.152344;0.405854;0.272702;0.465117;0.737958
29327;1.203060;7.458780;2.448743;-0.234732;0.289222;0.120794;-0.261963;-0.807617;0.142334;0.404313;0.270573;0.464560;0.739936
29328;1.026129;7.772832;2.748219;-0.209587;0.336504;0.118642;-0.267090;-0.801758;0.134033;0.402646;0.268189;0.464294;0.741877
29329;0.895454;8.405311;3.347007;-0.183737;0.389615;0.071603;-0.260986;-0.797363;0.137451;0.400966;0.265371;0.464455;0.743698
29330;0.656199;8.665583;3.413571;-0.195083;0.401662;-0.034660;-0.270996;-0.799805;0.120361;0.399956;0.262070;0.464839;0.745171
29331;0.674244;9.184620;3.314485;0.026101;0.251926;-0.122132;-0.264893;-0.800049;0.136230;0.399514;0.260029;0.466239;0.745248
29332;1.015488;10.703490;3.649440;0.600648;0.067871;-0.149753;-0.265381;-0.806641;0.138916;0.398739;0.261024;0.470704;0.742504
29333;1.398910;11.457555;3.369718;0.893978;0.116021;-0.168369;-0.268799;-0.802246;0.149658;0.397235;0.262567;0.477137;0.738650
29334;1.528236;12.917863;4.385681;0.641569;0.383835;-0.186677;-0.266357;-0.803955;0.156494;0.395265;0.261543;0.482916;0.736310
29335;0.403391;15.937116;5.840409;0.783307;0.775720;-0.283039;-0.257812;-0.804443;0.168457;0.391995;0.258170;0.491029;0.733879
29336;-1.588050;15.798828;4.446190;1.212083;0.807932;-0.347856;-0.257568;-0.787598;0.177002;0.388070;0.255723;0.501961;0.729413
29337;-2.291804;14.206193;2.941039;1.025943;0.069005;-0.268085;-0.260986;-0.797119;0.187256;0.387047;0.257458;0.509135;0.724356
29338;-0.876357;11.379508;2.758225;0.051594;-0.643818;-0.039544;-0.254883;-0.793457;0.193604;0.389718;0.261273;0.507600;0.722633
29339;1.105221;9.868956;3.605908;-0.349668;-0.484337;0.198093;-0.254395;-0.798584;0.190186;0.391170;0.263845;0.503650;0.723677
29340;1.601815;8.726585;3.786575;-0.385875;0.433300;0.240574;-0.252930;-0.805420;0.185303;0.388611;0.260927;0.502357;0.727005
29341;0.430011;7.845634;3.697255;-0.187275;1.289361;0.231422;-0.260742;-0.784668;0.172607;0.382122;0.253418;0.505019;0.731244
29342;-0.700589;7.927988;4.031250;0.203549;1.271281;0.303196;-0.280273;-0.793701;0.176025;0.374332;0.247540;0.509787;0.733974
29343;-0.981110;8.227764;3.999029;0.329752;0.979024;0.376116;-0.282715;-0.786621;0.175781;0.366961;0.244153;0.514226;0.735731
29344;-0.980743;8.689217;4.172939;-0.115644;1.041804;0.363445;-0.285400;-0.788086;0.165771;0.360319;0.238946;0.516104;0.739399
29345;-1.468061;9.148177;4.510175;-0.496816;1.125225;0.323351;-0.302246;-0.780762;0.149658;0.354346;0.231857;0.515891;0.744673
29346;-1.969284;9.201743;4.200622;-0.309926;0.828907;0.270675;-0.300293;-0.780273;0.148926;0.349463;0.226902;0.516011;0.748414
29347;-1.529196;9.268368;3.699533;0.247989;0.461582;0.255465;-0.305908;-0.782959;0.146240;0.345270;0.225836;0.518574;0.748911
29348;-0.942819;9.356108;2.992922;0.618615;0.379930;0.282013;-0.307617;-0.773193;0.151367;0.340557;0.226417;0.523128;0.747725
29349;-0.627074;9.046503;2.640606;0.543843;0.502618;0.329251;-0.320557;-0.771240;0.150391;0.335148;0.226221;0.527452;0.747191
29350;-0.523671;8.522963;2.387043;0.336919;0.530921;0.379622;-0.316162;-0.770752;0.153076;0.329588;0.225440;0.530428;0.747793
29351;-0.462341;8.189432;2.211377;0.420629;0.536591;0.395596;-0.323975;-0.766602;0.155029;0.323885;0.224926;0.533888;0.747977
29352;-0.432138;8.177097;1.951391;0.605284;0.604729;0.389779;-0.332520;-0.762695;0.161865;0.317520;0.224445;0.538668;0.747424
29353;-0.491012;8.292642;1.742661;0.552156;0.666714;0.369721;-0.336914;-0.760254;0.165039;0.311052;0.223358;0.543299;0.747117
29354;-0.655808;8.159092;1.597353;0.169081;0.690228;0.336246;-0.338867;-0.757812;0.157715;0.305416;0.220967;0.545637;0.748448
29355;-0.840419;7.646151;1.588243;-0.333804;0.668293;0.298964;-0.352783;-0.764404;0.153320;0.301072;0.217197;0.544797;0.751916
29356;-0.947510;6.946961;1.632139;-0.613737;0.559988;0.272391;-0.356934;-0.753906;0.147949;0.297791;0.213299;0.541973;0.756366
29357;-1.120085;6.388534;1.634094;-0.597319;0.492286;0.223504;-0.352539;-0.755615;0.137207;0.295034;0.209729;0.539189;0.760424
29358;-1.325751;6.253843;1.707329;-0.310230;0.465841;0.159198;-0.361572;-0.756104;0.127930;0.292445;0.206725;0.538242;0.762912
29359;-1.506825;6.774619;2.072397;0.039176;0.394290;0.096072;-0.357178;-0.751221;0.119629;0.289854;0.204706;0.539431;0.763606
29360;-1.748937;7.707028;2.538040;0.143632;0.171238;0.058020;-0.366699;-0.748779;0.126953;0.288386;0.204108;0.540768;0.763377
29361;-1.790998;8.330216;2.557944;-0.106209;-0.207609;0.067810;-0.371582;-0.751221;0.130859;0.288837;0.205460;0.539638;0.763643
29362;-1.507638;8.283828;2.387234;-0.423888;-0.478251;0.082233;-0.374023;-0.744385;0.125244;0.290912;0.207877;0.535828;0.764883
29363;-1.194811;8.703771;2.684108;-0.354784;-0.479106;0.071348;-0.367920;-0.749512;0.122559;0.292826;0.210380;0.532450;0.765826
29364;-0.947334;9.845258;2.949676;0.080819;-0.442269;0.060535;-0.365234;-0.751953;0.129883;0.294048;0.213629;0.531933;0.764817
29365;-0.563661;11.059741;2.851875;0.286832;-0.443439;0.105593;-0.364014;-0.746826;0.138184;0.294704;0.217624;0.532656;0.762934
29366;-0.533287;11.357280;2.333199;-0.110826;-0.348965;0.186681;-0.365234;-0.749023;0.131836;0.295144;0.220427;0.530943;0.763152
29367;-1.031563;11.292199;2.708950;-0.463576;-0.300329;0.251512;-0.367676;-0.737793;0.125732;0.295611;0.222232;0.526926;0.765229
29368;-1.199247;11.430604;3.248813;-0.156475;-0.457989;0.283246;-0.369873;-0.748779;0.137451;0.295893;0.225927;0.524412;0.765765
29369;-0.579962;12.991585;3.732795;0.545449;-0.531789;0.239878;-0.371826;-0.740479;0.139404;0.295584;0.231744;0.526317;0.762834
29370;0.645932;15.373317;3.609625;1.076584;-0.541930;0.185741;-0.370361;-0.733643;0.150391;0.294540;0.238575;0.531593;0.757454
29371;2.131093;17.039020;3.787322;0.851830;-0.477991;0.189767;-0.374512;-0.731934;0.166504;0.293616;0.244385;0.535526;0.753178
29372;2.604324;14.205928;3.987640;-0.707854;-0.168033;0.257448;-0.376221;-0.730713;0.161377;0.294004;0.244760;0.530284;0.756606
29373;0.763052;8.762395;5.057938;-1.954464;0.256390;0.247042;-0.382812;-0.740234;0.136719;0.295093;0.239368;0.518174;0.766237
29374;-0.229703;5.144433;6.287335;-1.378612;0.053944;0.128699;-0.383545;-0.739258;0.120117;0.296604;0.236128;0.509372;0.772535
29375;-0.249990;3.993026;6.070048;-0.164124;-0.204055;-0.101413;-0.376465;-0.742920;0.118164;0.298282;0.236578;0.508168;0.772544
29376;-0.388346;6.297363;5.388542;1.180890;-0.222557;-0.416179;-0.382568;-0.736328;0.139160;0.299526;0.239132;0.516144;0.765960
29377;-0.218474;9.321210;4.863318;1.619682;-0.280723;-0.543812;-0.371094;-0.734863;0.163818;0.300644;0.242614;0.526994;0.756987
29378;0.676148;11.049959;4.140080;0.603957;-0.695945;-0.421691;-0.354980;-0.739014;0.174561;0.304919;0.246706;0.530083;0.751779
29379;1.410737;11.266696;3.480371;-0.667793;-0.983726;-0.316787;-0.361816;-0.740479;0.165527;0.312594;0.249801;0.524184;0.751742
29380;1.613899;10.474242;3.119994;-0.898146;-0.853031;-0.321095;-0.354248;-0.734375;0.156982;0.319892;0.251332;0.517121;0.753052
29381;1.394337;9.421908;2.888763;-0.264185;-0.436911;-0.373137;-0.342773;-0.748535;0.159424;0.324337;0.251694;0.515219;0.752333
29382;0.737717;8.868231;2.999902;0.287389;0.020571;-0.398739;-0.340820;-0.753418;0.162842;0.326019;0.250600;0.518043;0.750029
29383;0.233712;8.346177;2.917949;0.347670;0.076507;-0.429330;-0.333252;-0.751465;0.161865;0.327487;0.249171;0.521450;0.747500
29384;0.023666;7.838274;2.685680;0.177714;-0.059345;-0.431995;-0.328125;-0.753906;0.171875;0.329931;0.248072;0.523399;0.745426
29385;-0.054960;7.354944;2.396522;0.000567;-0.172401;-0.432135;-0.327393;-0.751953;0.169922;0.333231;0.247257;0.523965;0.743830
29386;-0.030586;7.050540;2.064409;0.004517;-0.276960;-0.423716;-0.318115;-0.750244;0.166504;0.336812;0.247094;0.524239;0.742075
29387;0.208211;6.926565;1.911831;0.096883;-0.387346;-0.378358;-0.320801;-0.756592;0.183350;0.340440;0.248036;0.524647;0.739813
29388;0.586445;6.963944;1.699113;0.065746;-0.478141;-0.310704;-0.312012;-0.764893;0.177490;0.343997;0.249829;0.524529;0.737646
29389;0.867545;6.859212;1.515979;-0.101404;-0.447799;-0.270380;-0.304688;-0.761230;0.177246;0.347622;0.251049;0.523314;0.736393
29390;1.010614;6.843201;1.563038;-0.204321;-0.308874;-0.226542;-0.293945;-0.757812;0.182861;0.350609;0.251316;0.521765;0.735986
29391;1.048791;6.934330;1.615248;-0.195515;-0.270726;-0.169533;-0.302979;-0.755859;0.187256;0.353146;0.251703;0.520276;0.735695
29392;1.040998;7.159933;1.558542;-0.088450;-0.238367;-0.119437;-0.303955;-0.768555;0.169434;0.354800;0.252424;0.519479;0.735214
29393;1.012776;7.761375;1.739345;-0.054262;-0.194389;-0.099791;-0.289307;-0.757080;0.179688;0.356108;0.252907;0.518892;0.734831
29394;0.881788;8.252202;1.902657;-0.175310;-0.213903;-0.069216;-0.297119;-0.761230;0.173096;0.357715;0.253416;0.517466;0.734881
29395;1.070997;8.697094;2.323464;-0.302913;-0.241211;-0.009799;-0.291260;-0.762451;0.171387;0.359222;0.253892;0.515042;0.735683
29396;1.304120;9.241098;2.802326;-0.292122;-0.172981;0.027185;-0.292480;-0.768066;0.164795;0.360268;0.254171;0.512798;0.736642
29397;1.269301;9.704909;2.994799;-0.145291;-0.033245;-0.009972;-0.294434;-0.754883;0.164795;0.360637;0.253846;0.511937;0.737173
29398;1.244264;9.956532;2.932026;0.055825;-0.022050;-0.061473;-0.300049;-0.759033;0.161133;0.360774;0.253854;0.512475;0.736729
29399;1.574640;11.031394;2.838090;0.466517;-0.123304;-0.099715;-0.290039;-0.765869;0.177490;0.360650;0.255504;0.515302;0.734243
29400;1.888946;11.842384;2.866509;0.709760;-0.051935;-0.103554;-0.286133;-0.762207;0.185303;0.359851;0.257518;0.519834;0.730729
29401;2.145126;11.248955;2.413428;0.461798;0.075145;-0.085370;-0.292969;-0.757324;0.176025;0.358944;0.258092;0.523172;0.728587
29402;2.576648;10.086802;2.151024;0.415946;0.065822;-0.011205;-0.285400;-0.751709;0.186279;0.357631;0.258801;0.526015;0.726932
29403;2.950407;13.050551;4.032256;0.769781;0.452913;-0.038321;-0.289795;-0.755615;0.200439;0.354094;0.258167;0.532196;0.724386
29404;-0.139163;15.566659;4.200087;1.255380;1.542967;-0.289965;-0.298340;-0.748779;0.209473;0.346102;0.251248;0.544993;0.721159
29405;-2.728736;15.240578;3.291313;0.900835;1.651993;-0.328078;-0.294189;-0.752441;0.215088;0.338403;0.242387;0.555923;0.719501
29406;-3.814609;12.766880;2.765578;0.232137;0.630201;-0.221293;-0.296387;-0.755615;0.200439;0.336185;0.238256;0.559653;0.719029
29407;-2.156013;9.555372;3.046396;-0.448562;-0.010293;-0.050987;-0.291504;-0.757812;0.194580;0.337259;0.236756;0.557130;0.720978
29408;-0.436553;8.952160;4.183350;-0.288737;-0.014458;-0.030685;-0.301514;-0.749512;0.197998;0.337964;0.235843;0.555504;0.722200
29409;0.114011;8.493567;3.795167;0.009315;0.484602;-0.084229;-0.301270;-0.751221;0.186768;0.335953;0.232519;0.557217;0.722897
29410;-0.279202;8.236321;4.076029;-0.308000;0.914412;-0.032543;-0.293213;-0.759277;0.187012;0.332265;0.225917;0.558070;0.726030
29411;-0.913040;7.977239;5.045493;-0.965723;0.904444;0.099110;-0.296875;-0.756592;0.169678;0.329174;0.218237;0.554605;0.732414
29412;-1.486663;7.113568;5.055289;-1.351019;0.675439;0.230975;-0.301025;-0.763184;0.141846;0.326979;0.211476;0.547841;0.740427
29413;-1.535326;7.079439;5.177628;-1.033597;0.225657;0.260600;-0.303467;-0.761475;0.138672;0.326064;0.208430;0.541671;0.746211
29414;-1.413279;7.638952;4.629345;0.144723;-0.092289;0.225804;-0.306641;-0.761719;0.139160;0.324756;0.210460;0.542021;0.745958
29415;-1.381519;8.659564;3.448139;1.351944;-0.142719;0.151574;-0.306641;-0.758789;0.161621;0.321992;0.215705;0.549826;0.739922
29416;-1.077808;9.692297;2.711658;1.594476;-0.189133;0.160395;-0.309570;-0.749512;0.173828;0.318924;0.221921;0.558903;0.732575
29417;-0.478115;10.081762;2.312710;0.815806;-0.282232;0.222438;-0.309082;-0.754150;0.192139;0.317267;0.226837;0.562789;0.728804
29418;0.070241;9.597451;2.056818;-0.103663;-0.259222;0.283786;-0.318604;-0.744873;0.184326;0.316918;0.229512;0.561018;0.729483
29419;0.231837;8.782015;1.981994;-0.380826;-0.274029;0.343501;-0.321289;-0.744629;0.191895;0.316685;0.231748;0.557406;0.731643
29420;0.005175;8.324157;1.896821;-0.038308;-0.102174;0.324481;-0.321533;-0.747070;0.184570;0.315141;0.233823;0.556377;0.732433
29421;-0.365459;8.173743;1.793540;0.282830;0.018541;0.292112;-0.329102;-0.739502;0.184814;0.312636;0.235816;0.557663;0.731889
29422;-0.538641;8.030633;1.458008;0.281434;-0.002001;0.282125;-0.326172;-0.732910;0.190186;0.310221;0.237846;0.558908;0.731310
29423;-0.693549;7.856464;1.463524;0.030607;0.008907;0.268316;-0.340088;-0.737793;0.193604;0.308394;0.239131;0.558669;0.731846
29424;-0.873192;7.660845;1.675111;-0.231332;0.029165;0.244432;-0.346680;-0.736328;0.183594;0.307055;0.239491;0.556948;0.733600
29425;-1.215979;7.417976;1.675408;-0.315190;0.035439;0.199957;-0.339600;-0.737793;0.178955;0.306065;0.239329;0.554813;0.735682
29426;-1.407939;7.282990;1.688507;-0.205510;-0.031309;0.140017;-0.343018;-0.730225;0.178467;0.305651;0.239614;0.553275;0.736919
29427;-1.306533;7.500405;1.560419;-0.040810;-0.131629;0.098273;-0.350830;-0.731445;0.177246;0.305582;0.240743;0.552588;0.737095
29428;-1.465761;7.698108;1.654743;0.010077;-0.147081;0.034370;-0.344238;-0.736816;0.181396;0.305795;0.241762;0.552315;0.736878
29429;-1.411371;8.139258;1.670822;-0.051021;-0.256858;0.000375;-0.340576;-0.727295;0.180176;0.306962;0.243199;0.551438;0.736576
29430;-1.254672;8.570015;1.931737;-0.059621;-0.347207;-0.020480;-0.343262;-0.732178;0.191162;0.308683;0.245065;0.550317;0.736077
29431;-0.930263;9.106742;2.542849;-0.240845;-0.326231;-0.047631;-0.349365;-0.733887;0.185547;0.310833;0.246256;0.548209;0.736348
29432;-0.647826;9.812517;2.543225;-0.240650;-0.289358;-0.069455;-0.343750;-0.730225;0.177734;0.312842;0.247049;0.546247;0.736689
29433;-0.535378;10.229446;2.407592;-0.172821;-0.278918;-0.036102;-0.344482;-0.733887;0.178467;0.314481;0.248079;0.544642;0.736834
29434;-0.659665;10.555506;2.510291;-0.256572;-0.341351;0.044962;-0.333008;-0.734863;0.170898;0.316069;0.249640;0.542190;0.737435
29435;-0.584585;10.871829;2.666426;-0.193426;-0.425430;0.103882;-0.332275;-0.736572;0.172852;0.317688;0.252175;0.539735;0.737678
29436;-0.286533;11.316632;3.422519;-0.047104;-0.362320;0.111503;-0.337402;-0.737549;0.172852;0.318679;0.254758;0.538326;0.737392
29437;0.047133;13.137668;4.142964;0.298706;-0.330420;0.086598;-0.337891;-0.738525;0.178223;0.318875;0.257911;0.539187;0.735580
29438;1.643685;16.156620;3.442092;1.195956;-0.473060;0.068767;-0.347656;-0.732178;0.197021;0.317878;0.264228;0.545172;0.729332
29439;3.654082;16.470226;2.887837;0.628056;-0.302755;0.174952;-0.340088;-0.718750;0.197510;0.316550;0.268417;0.547917;0.726316
29440;3.033825;12.267389;3.360899;-1.525749;0.315836;0.387066;-0.346436;-0.735596;0.182861;0.315968;0.264130;0.538696;0.734987
29441;0.622343;7.725299;5.050013;-1.956190;0.522848;0.475016;-0.352295;-0.729980;0.161865;0.314849;0.257832;0.527053;0.746061
29442;-0.701199;5.593738;6.027263;-0.795256;0.254070;0.329529;-0.355957;-0.731934;0.149170;0.313265;0.255607;0.522147;0.750928
29443;-0.983938;6.196308;5.459421;0.787054;0.057529;-0.013237;-0.363281;-0.728516;0.159912;0.311318;0.257238;0.527322;0.747557
29444;-0.814276;8.567410;4.937922;1.311219;-0.014839;-0.336752;-0.355713;-0.730713;0.169189;0.310471;0.259203;0.536239;0.740857
29445;-0.299190;10.253348;4.245783;0.521608;-0.317216;-0.394343;-0.337891;-0.727783;0.184814;0.313063;0.260699;0.539559;0.736820
29446;0.556923;10.529632;4.032958;-0.426677;-0.781605;-0.295213;-0.343506;-0.739014;0.175781;0.319323;0.263108;0.535580;0.736180
29447;1.429814;9.891144;3.525660;-0.812180;-0.889775;-0.261109;-0.336426;-0.734375;0.176514;0.326546;0.265183;0.528848;0.737133
29448;1.539789;9.178712;3.014880;-0.396187;-0.450689;-0.315614;-0.331055;-0.734619;0.173828;0.331231;0.265469;0.525956;0.737009
29449;1.011883;8.825227;2.828398;0.183503;-0.052562;-0.352803;-0.325195;-0.748047;0.170166;0.333105;0.264740;0.527794;0.735110
29450;0.443623;8.501925;2.793003;0.272404;0.007902;-0.366544;-0.328369;-0.742188;0.174072;0.334636;0.263813;0.530352;0.732904
29451;0.133467;7.936869;2.721582;0.057513;0.006953;-0.371251;-0.325195;-0.743408;0.177979;0.336568;0.262228;0.531622;0.731666
29452;-0.163876;7.701465;2.799928;-0.014654;-0.020417;-0.387443;-0.312256;-0.739990;0.180420;0.338876;0.260547;0.532408;0.730630
29453;-0.283622;7.593909;2.656747;0.076541;-0.149003;-0.394278;-0.313477;-0.752686;0.178955;0.341677;0.259926;0.533378;0.728837
29454;-0.170005;7.660111;2.475721;0.179041;-0.277561;-0.402484;-0.305908;-0.750977;0.177979;0.344826;0.260295;0.534621;0.726307
29455;-0.010393;7.750119;2.299109;0.121375;-0.327941;-0.398794;-0.292480;-0.753662;0.189697;0.348300;0.260803;0.535347;0.723928
29456;0.266286;7.727834;2.220160;-0.045380;-0.385205;-0.359437;-0.294434;-0.755615;0.190918;0.352249;0.261426;0.534789;0.722204
29457;0.539828;7.574565;2.058392;-0.160254;-0.478489;-0.260081;-0.291504;-0.755615;0.185791;0.356179;0.262668;0.533057;0.721105
29458;0.805028;7.389925;2.009145;-0.192931;-0.497032;-0.154349;-0.286865;-0.761230;0.191895;0.359588;0.264353;0.530834;0.720437
29459;0.809775;7.299584;1.965950;-0.167572;-0.404049;-0.099936;-0.287598;-0.760986;0.182617;0.362234;0.265833;0.528909;0.719982
29460;0.834055;7.302241;1.768652;-0.020965;-0.375587;-0.043946;-0.286865;-0.769775;0.189697;0.364037;0.267771;0.527826;0.719149
29461;0.918594;7.425410;1.489988;0.196039;-0.436809;0.016277;-0.283691;-0.763672;0.186523;0.365280;0.271024;0.527715;0.717379
29462;1.153138;7.925484;1.243416;0.368861;-0.476486;0.058053;-0.281494;-0.755615;0.201416;0.366050;0.275199;0.528407;0.714884
29463;1.489440;8.573488;1.321724;0.368376;-0.423779;0.097580;-0.290527;-0.757080;0.196777;0.366365;0.279267;0.529155;0.712588
29464;1.748480;9.175191;1.559329;0.164298;-0.224232;0.122653;-0.279541;-0.758545;0.204590;0.366013;0.281536;0.529258;0.711799
29465;1.834918;9.699918;2.059101;-0.044925;0.069867;0.122294;-0.286621;-0.754883;0.199463;0.365001;0.281528;0.528977;0.712531
29466;1.403575;9.691798;2.343432;-0.242241;0.362192;0.079898;-0.296875;-0.760742;0.204834;0.363344;0.278947;0.528525;0.714725
29467;0.951379;9.727739;2.484889;-0.234506;0.388092;0.004670;-0.289551;-0.757080;0.198242;0.361942;0.275897;0.528385;0.716721
29468;0.573971;10.306557;2.810553;-0.042310;0.227813;-0.061417;-0.291260;-0.760010;0.195801;0.361287;0.274144;0.529028;0.717249
29469;0.568161;10.421569;2.652087;0.108978;0.090108;-0.074448;-0.281738;-0.755615;0.195068;0.360957;0.273603;0.530191;0.716763
29470;1.281745;10.633826;3.107810;0.261058;-0.052671;-0.052393;-0.284912;-0.754883;0.190674;0.360862;0.274519;0.531756;0.715300
29471;2.082638;12.871427;4.885620;0.278505;-0.003074;-0.035627;-0.282715;-0.751709;0.208984;0.360348;0.275212;0.533545;0.713959
29472;1.119009;15.108430;5.220693;0.393309;0.718958;-0.103259;-0.288330;-0.760742;0.205078;0.356795;0.271711;0.538317;0.713502
29473;-1.458203;16.128554;4.401505;0.819067;1.363312;-0.286978;-0.293701;-0.758301;0.205566;0.350396;0.264750;0.547897;0.711996
29474;-3.451926;13.122969;2.247042;0.611626;1.108075;-0.377194;-0.285156;-0.751221;0.207520;0.346056;0.258204;0.555627;0.710531
29475;-3.032742;9.657233;1.976016;0.044699;0.012855;-0.228841;-0.284180;-0.759521;0.202637;0.347171;0.257216;0.556473;0.709683
29476;-0.933142;7.895547;2.727609;0.400135;-0.875544;-0.051511;-0.275635;-0.754883;0.214111;0.350559;0.263290;0.556458;0.705791
29477;1.214690;7.825518;3.010722;0.465907;-0.832612;0.110605;-0.283936;-0.751465;0.228760;0.352679;0.270076;0.556552;0.702087
29478;1.956093;8.572473;2.941010;0.203745;0.232610;0.076658;-0.290283;-0.766357;0.233154;0.350556;0.269654;0.558321;0.701908
29479;0.955880;8.844715;3.363765;-0.220961;1.102151;0.085946;-0.291992;-0.758545;0.223633;0.345258;0.262934;0.560099;0.705657
29480;-0.064730;8.697215;3.597473;-0.547982;0.954828;0.260039;-0.293213;-0.754639;0.208252;0.340333;0.256945;0.559087;0.711037
29481;-0.746222;9.174996;3.956913;-0.536862;0.646223;0.341778;-0.299316;-0.753174;0.200928;0.336352;0.253195;0.557036;0.715871
29482;-1.250852;10.356981;4.173052;0.046711;0.642707;0.244086;-0.307861;-0.756592;0.194336;0.331735;0.250651;0.558632;0.717674
29483;-1.538092;11.047073;3.483185;0.547068;0.457941;0.174625;-0.309082;-0.752197;0.198242;0.327300;0.250227;0.562841;0.716569
29484;-1.317225;10.931842;2.575999;0.227621;0.166245;0.244915;-0.317871;-0.754150;0.204102;0.324494;0.251007;0.564182;0.716518
29485;-0.494424;10.170830;2.577592;-0.538798;0.024057;0.350109;-0.327148;-0.745850;0.192627;0.323299;0.251044;0.560339;0.720052
29486;-0.033976;9.049654;2.749466;-0.752558;0.077561;0.384927;-0.330078;-0.746826;0.186523;0.322010;0.250284;0.555276;0.724801
29487;0.094424;8.346720;2.789347;-0.435954;0.217471;0.373615;-0.330322;-0.756836;0.177979;0.319508;0.249503;0.552494;0.728295
29488;-0.032204;8.188553;2.597482;-0.081201;0.287384;0.347035;-0.340576;-0.747070;0.170410;0.316164;0.249147;0.552080;0.730188
29489;-0.166173;8.306005;2.230388;0.046228;0.239784;0.323597;-0.337158;-0.742188;0.175781;0.312836;0.249248;0.552370;0.731366
29490;-0.240968;8.206980;2.063483;-0.218965;0.151998;0.329537;-0.349121;-0.739014;0.165527;0.310527;0.249297;0.550776;0.733532
29491;-0.281735;7.781378;2.126004;-0.575527;0.090776;0.324414;-0.351807;-0.741943;0.160889;0.309161;0.248690;0.546862;0.737235
29492;-0.394943;7.134758;2.178209;-0.753501;0.064700;0.301932;-0.362061;-0.745361;0.154053;0.308447;0.247705;0.541806;0.741585
29493;-0.482549;6.596326;2.155456;-0.660919;0.057479;0.251237;-0.360840;-0.745605;0.146484;0.307833;0.246745;0.537397;0.745359
29494;-0.546115;6.636807;2.147320;-0.274612;0.049039;0.163358;-0.355225;-0.739746;0.139404;0.307057;0.246465;0.535524;0.747118
29495;-0.674397;7.016246;2.135347;0.101912;0.084561;0.069215;-0.357178;-0.746826;0.145020;0.305994;0.246532;0.536262;0.747003
29496;-1.037597;7.277808;2.183506;0.135084;0.107150;-0.012192;-0.359375;-0.743164;0.151367;0.305291;0.246202;0.537429;0.746560
29497;-1.344554;7.601713;2.464141;0.055001;0.002817;-0.066438;-0.359863;-0.744629;0.137207;0.305553;0.246080;0.537948;0.746119
29498;-1.470049;7.792294;2.632883;0.033176;-0.158647;-0.104562;-0.357178;-0.749512;0.145752;0.306738;0.246651;0.538007;0.745402
29499;-1.348837;8.115598;2.703171;0.009257;-0.308002;-0.126915;-0.356689;-0.749268;0.148926;0.308838;0.248035;0.537571;0.744389
29500;-0.798646;8.725484;2.656420;0.102632;-0.450129;-0.136481;-0.354736;-0.750000;0.148193;0.311425;0.250488;0.537367;0.742635
29501;-0.129019;9.667053;2.601217;0.199025;-0.450307;-0.119231;-0.348389;-0.744873;0.157959;0.313670;0.253234;0.537718;0.740502
29502;0.215612;10.645769;2.594985;0.159929;-0.349943;-0.074042;-0.355225;-0.743896;0.160889;0.315315;0.255499;0.537980;0.738834
29503;0.155039;10.979110;2.152322;0.034629;-0.320586;-0.014010;-0.351318;-0.740234;0.164795;0.316630;0.257463;0.537434;0.737986
29504;0.011750;10.418668;2.114286;-0.198835;-0.282580;0.062968;-0.347656;-0.744141;0.162842;0.317831;0.258942;0.535379;0.738446
29505;-0.383293;9.924679;3.302983;-0.288927;-0.196562;0.094323;-0.346924;-0.751709;0.155273;0.318689;0.259812;0.532917;0.739550
29506;-0.364763;11.165190;4.233741;0.238247;-0.250035;0.047604;-0.348877;-0.748047;0.160889;0.318931;0.262190;0.533655;0.738073
29507;0.477402;14.196405;4.340530;0.989660;-0.178003;-0.000004;-0.344727;-0.743652;0.172852;0.317473;0.265890;0.539294;0.733264
29508;1.665538;16.339131;3.227881;1.157050;-0.170890;-0.005152;-0.354980;-0.743164;0.192139;0.315644;0.269957;0.545934;0.727632
29509;2.097532;14.150307;2.526769;-0.265450;-0.156056;0.149944;-0.344727;-0.739502;0.182373;0.315909;0.270844;0.543631;0.728910
29510;1.239868;10.358521;3.846694;-1.390754;-0.057024;0.294839;-0.351807;-0.738770;0.166748;0.317430;0.268833;0.534368;0.735811
29511;0.176724;7.421354;4.191652;-0.633408;-0.078737;0.204700;-0.352783;-0.746826;0.164795;0.317836;0.268515;0.529855;0.739009
29512;-0.427909;5.867891;4.077392;0.523214;-0.033456;-0.004619;-0.360107;-0.744873;0.173828;0.316814;0.270109;0.533023;0.736584
29513;-0.626293;5.949602;4.568598;0.760877;-0.049769;-0.226562;-0.357422;-0.746338;0.178467;0.316614;0.271397;0.538103;0.732491
29514;-0.792502;7.244231;4.834164;0.526757;-0.196025;-0.395566;-0.352295;-0.748047;0.192139;0.318590;0.272158;0.541733;0.728667
29515;-0.920472;8.560795;4.717974;0.080765;-0.440901;-0.492906;-0.349854;-0.756104;0.192871;0.323311;0.272811;0.542198;0.725993
29516;-0.339636;9.368878;4.430594;-0.616054;-0.879608;-0.518504;-0.334473;-0.749756;0.183350;0.331670;0.274058;0.537300;0.725394
29517;0.574300;9.968416;4.543283;-0.973376;-1.154708;-0.559438;-0.322510;-0.754395;0.191162;0.342280;0.275746;0.529495;0.725564
29518;1.090204;10.105599;4.251633;-0.746665;-1.057876;-0.603410;-0.325195;-0.769287;0.178711;0.352261;0.277356;0.523336;0.724642
29519;1.100216;9.736658;3.665065;-0.306491;-0.982236;-0.575957;-0.305908;-0.763672;0.176758;0.360488;0.279745;0.519971;0.722095
29520;1.158531;9.291878;3.431305;-0.153169;-1.032312;-0.503740;-0.294434;-0.771973;0.182617;0.368191;0.283230;0.517139;0.718877
29521;1.131759;8.800750;3.234146;-0.046922;-0.942776;-0.446976;-0.283447;-0.767578;0.193115;0.374942;0.286767;0.515028;0.715492
29522;0.862919;8.469783;3.055594;0.196707;-0.761209;-0.430013;-0.283936;-0.773926;0.194580;0.380260;0.290084;0.514855;0.711462
29523;0.510262;8.513223;2.888529;0.415173;-0.602711;-0.436483;-0.278564;-0.776367;0.208008;0.384267;0.293026;0.516494;0.706901
29524;0.406074;8.625519;2.763346;0.426866;-0.617315;-0.441162;-0.262207;-0.777100;0.217041;0.388319;0.296065;0.518144;0.702197
29525;0.468372;8.577686;2.443590;0.220049;-0.657853;-0.441111;-0.256348;-0.776855;0.218994;0.393154;0.298732;0.518397;0.698179
29526;0.574675;8.438900;2.324461;0.053921;-0.652322;-0.416233;-0.248535;-0.779053;0.216309;0.398175;0.300883;0.517624;0.694975
