// Start Time: Unknown
// Update Rate: 60.0Hz
// Filter Profile: human (46.1)
// Firmware Version: 4.4.0
PacketCounter;Acc_X;Acc_Y;Acc_Z;Gyr_X;Gyr_Y;Gyr_Z;Mag_X;Mag_Y;Mag_Z;Quat_q0;Quat_q1;Quat_q2;Quat_q3
28597;9.751643;-0.401527;-0.711915;0.028008;0.018752;0.008087;-0.684814;0.234863;-0.411377;0.667270;-0.174850;-0.711256;-0.135252
28598;9.818055;-0.460187;-0.672156;0.006533;0.023745;0.002118;-0.686523;0.237793;-0.410889;0.667423;-0.174800;-0.711128;-0.135236
28599;9.815661;-0.501735;-0.669084;0.001818;0.032432;0.000167;-0.690918;0.234863;-0.405518;0.667616;-0.174758;-0.710950;-0.135271
28600;9.786340;-0.540282;-0.689204;0.006152;0.027751;-0.002205;-0.687012;0.236572;-0.402832;0.667788;-0.174680;-0.710805;-0.135286
28601;9.799414;-0.551771;-0.674120;0.013718;0.016591;-0.001150;-0.684814;0.250000;-0.416748;0.667906;-0.174581;-0.710728;-0.135232
28602;9.776903;-0.547743;-0.736248;0.015893;0.013638;-0.002554;-0.688477;0.239990;-0.408936;0.668010;-0.174468;-0.710671;-0.135165
28603;9.765173;-0.505727;-0.734435;0.009695;0.006477;0.004348;-0.689941;0.238525;-0.408936;0.668070;-0.174444;-0.710637;-0.135081
28604;9.732745;-0.475650;-0.684403;0.002748;-0.002894;0.011475;-0.687744;0.246094;-0.406250;0.668072;-0.174515;-0.710637;-0.134981
28605;9.748960;-0.418069;-0.661882;-0.004563;-0.019692;0.022699;-0.688477;0.236084;-0.402832;0.667977;-0.174714;-0.710705;-0.134834
28606;9.773900;-0.495664;-0.675907;-0.020253;-0.028128;0.023050;-0.696045;0.234375;-0.414307;0.667811;-0.175012;-0.710800;-0.134765
28607;9.812204;-0.605121;-0.701327;-0.023370;-0.035010;0.025970;-0.686035;0.233398;-0.415283;0.667606;-0.175356;-0.710924;-0.134685
28608;9.761752;-0.729501;-0.736210;-0.009221;-0.027317;0.027357;-0.684814;0.239990;-0.407959;0.667471;-0.175631;-0.711015;-0.134514
28609;9.735770;-0.786727;-0.671662;0.022727;-0.024960;0.025804;-0.687500;0.239502;-0.407959;0.667397;-0.175734;-0.711128;-0.134146
28610;9.775733;-0.825247;-0.660839;0.063609;-0.014771;0.018928;-0.683838;0.239746;-0.411133;0.667443;-0.175579;-0.711233;-0.133566
28611;9.801272;-0.664449;-0.652882;0.099728;0.009012;0.011809;-0.695312;0.240723;-0.410156;0.667684;-0.175176;-0.711245;-0.132822
28612;9.829520;-0.577866;-0.570067;0.111916;0.033851;0.003008;-0.686035;0.238037;-0.417236;0.668088;-0.174645;-0.711135;-0.132074
28613;9.901774;-0.690137;-0.473075;0.127821;0.063120;-0.008023;-0.690674;0.236084;-0.410156;0.668688;-0.173919;-0.710885;-0.131344
28614;9.864193;-0.715737;-0.537242;0.151593;0.078513;-0.013347;-0.689697;0.236816;-0.417236;0.669425;-0.173024;-0.710565;-0.130503
28615;9.820832;-0.465464;-0.783337;0.153919;0.069318;-0.019917;-0.681885;0.234619;-0.411133;0.670122;-0.172103;-0.710285;-0.129665
28616;9.710732;-0.014178;-0.962689;0.095539;0.063899;-0.035176;-0.683838;0.232422;-0.415771;0.670657;-0.171386;-0.710028;-0.129254
28617;9.644246;0.002845;-0.867369;-0.023924;0.041234;-0.024904;-0.687012;0.233154;-0.415283;0.670868;-0.171400;-0.709779;-0.129505
28618;9.670159;-0.479141;-0.724574;-0.110322;-0.002202;0.024759;-0.677490;0.229248;-0.417725;0.670728;-0.172217;-0.709632;-0.129957
28619;9.770185;-0.897788;-0.691751;-0.094650;0.001814;0.064422;-0.684082;0.244629;-0.410889;0.670661;-0.173133;-0.709440;-0.130129
28620;9.811880;-0.879779;-0.653170;-0.033808;0.037003;0.057924;-0.691895;0.240479;-0.409912;0.670903;-0.173721;-0.709101;-0.129946
28621;9.796422;-0.668370;-0.633636;-0.022383;0.042019;0.036015;-0.689209;0.239014;-0.414307;0.671164;-0.174158;-0.708775;-0.129793
28622;9.844543;-0.710121;-0.551052;-0.042582;0.026310;0.028833;-0.680420;0.243652;-0.412109;0.671299;-0.174678;-0.708520;-0.129785
28623;9.891744;-0.870189;-0.680616;-0.010464;0.029111;0.034463;-0.681885;0.245605;-0.407715;0.671521;-0.175017;-0.708269;-0.129556
28624;9.736546;-0.813091;-0.701202;0.043357;0.033844;0.043112;-0.691895;0.247803;-0.416748;0.671853;-0.175130;-0.708041;-0.128924
28625;9.621379;-0.573140;-0.693807;0.053317;0.012118;0.037489;-0.684082;0.249023;-0.414062;0.672076;-0.175291;-0.707916;-0.128226
28626;9.634414;-0.454884;-0.731862;0.012495;-0.021144;0.039032;-0.692383;0.241455;-0.418945;0.672039;-0.175659;-0.707951;-0.127720
28627;9.728996;-0.542032;-0.717358;-0.037864;-0.036116;0.049316;-0.690674;0.245605;-0.406982;0.671821;-0.176427;-0.708012;-0.127471
28628;9.817670;-0.661655;-0.674538;-0.044397;-0.036274;0.051569;-0.674316;0.252686;-0.413574;0.671572;-0.177190;-0.708108;-0.127190
28629;9.814897;-0.679199;-0.670560;-0.025101;-0.032471;0.038724;-0.681396;0.246826;-0.412109;0.671415;-0.177653;-0.708183;-0.126957
28630;9.748253;-0.510602;-0.763187;-0.017394;-0.037896;0.028057;-0.689209;0.242432;-0.413818;0.671193;-0.178053;-0.708337;-0.126715
28631;9.741581;-0.334062;-0.861189;-0.046619;-0.052900;0.018084;-0.691162;0.249756;-0.412109;0.670797;-0.178622;-0.708571;-0.126698
28632;9.723538;-0.325814;-0.842064;-0.104027;-0.072280;0.025994;-0.677002;0.249268;-0.400879;0.670204;-0.179623;-0.708833;-0.126954
28633;9.742463;-0.500691;-0.753092;-0.139062;-0.078927;0.039575;-0.692871;0.245361;-0.408691;0.669526;-0.180652;-0.709148;-0.127313
28634;9.812879;-0.658257;-0.722207;-0.144303;-0.078026;0.042650;-0.682617;0.247314;-0.406494;0.668812;-0.181902;-0.709424;-0.127747
28635;9.851137;-0.758501;-0.764925;-0.125145;-0.058252;0.035390;-0.685059;0.254150;-0.411377;0.668273;-0.182860;-0.709614;-0.128146
28636;9.836428;-0.710705;-0.743419;-0.102761;-0.046235;0.031185;-0.693848;0.249512;-0.405762;0.667858;-0.183761;-0.709711;-0.128483
28637;9.757357;-0.644426;-0.798905;-0.099490;-0.040651;0.036100;-0.682861;0.251465;-0.404541;0.667431;-0.184681;-0.709826;-0.128747
28638;9.712377;-0.625026;-0.790133;-0.098717;-0.050628;0.031371;-0.683105;0.250977;-0.398926;0.666987;-0.185469;-0.709988;-0.129021
28639;9.697637;-0.774297;-0.786318;-0.102175;-0.063835;0.035840;-0.685547;0.260986;-0.400635;0.666447;-0.186286;-0.710240;-0.129244
28640;9.789343;-0.870915;-0.771421;-0.083163;-0.063933;0.036766;-0.686035;0.259521;-0.402832;0.665952;-0.187144;-0.710456;-0.129374
28641;9.817587;-0.907614;-0.812342;-0.055020;-0.061910;0.029153;-0.687988;0.257080;-0.402588;0.665514;-0.187787;-0.710693;-0.129390
28642;9.777517;-0.826183;-0.802526;-0.034343;-0.060823;0.027242;-0.686768;0.258789;-0.400146;0.665107;-0.188289;-0.710960;-0.129286
28643;9.757886;-0.743993;-0.853403;-0.025001;-0.069194;0.032892;-0.691650;0.265625;-0.399414;0.664678;-0.188782;-0.711271;-0.129071
28644;9.774355;-0.699050;-0.850782;-0.022100;-0.068723;0.031676;-0.697021;0.274170;-0.395508;0.664236;-0.189373;-0.711563;-0.128866
28645;9.872757;-0.693016;-0.810512;-0.018422;-0.063692;0.020068;-0.689453;0.262939;-0.390625;0.663782;-0.190013;-0.711842;-0.128725
28646;9.886006;-0.657486;-0.775414;-0.018508;-0.048400;0.015943;-0.686768;0.262451;-0.398193;0.663434;-0.190347;-0.712105;-0.128569
28647;9.823584;-0.686346;-0.778721;-0.016949;-0.034252;0.019142;-0.688965;0.252441;-0.399414;0.663231;-0.190672;-0.712225;-0.128472
28648;9.734172;-0.721667;-0.813716;-0.012214;-0.021805;0.016372;-0.683594;0.265137;-0.391846;0.663104;-0.190801;-0.712327;-0.128370
28649;9.675768;-0.747515;-0.854996;-0.012836;-0.023045;0.003155;-0.693604;0.263184;-0.388184;0.662958;-0.190974;-0.712426;-0.128318
28650;9.706448;-0.758720;-0.887644;-0.010099;-0.021244;-0.005901;-0.690918;0.268555;-0.396484;0.662740;-0.191115;-0.712594;-0.128299
28651;9.791916;-0.805167;-0.905483;0.002019;-0.010850;-0.014083;-0.689453;0.270508;-0.390869;0.662658;-0.191229;-0.712632;-0.128339
28652;9.828550;-0.869460;-0.885297;0.010793;-0.003432;-0.015329;-0.683594;0.266846;-0.395020;0.662612;-0.191280;-0.712667;-0.128309
28653;9.824786;-0.781742;-0.924273;0.037673;-0.007957;-0.016254;-0.698486;0.263916;-0.399414;0.662640;-0.191096;-0.712724;-0.128119
28654;9.791740;-0.651427;-0.922238;0.038347;-0.001457;-0.024599;-0.684082;0.263916;-0.396240;0.662632;-0.190951;-0.712784;-0.128047
28655;9.821025;-0.630488;-0.897273;0.026666;0.007675;-0.026967;-0.687012;0.258057;-0.390381;0.662726;-0.190713;-0.712766;-0.128011
28656;9.788840;-0.676309;-0.911668;0.002043;0.001331;-0.009573;-0.688965;0.259521;-0.391357;0.662708;-0.190601;-0.712823;-0.127956
28657;9.745567;-0.721214;-0.969711;-0.013657;-0.003890;0.001550;-0.692627;0.263428;-0.389160;0.662637;-0.190703;-0.712862;-0.127951
28658;9.785577;-0.756725;-0.958093;-0.020349;-0.005039;0.006141;-0.697754;0.264160;-0.394287;0.662512;-0.190963;-0.712905;-0.127971
28659;9.832859;-0.817470;-0.884066;-0.021965;0.001038;0.011742;-0.685791;0.263184;-0.395752;0.662428;-0.191330;-0.712873;-0.128041
28660;9.914368;-0.819792;-0.803733;-0.003660;0.003522;0.014723;-0.688721;0.269287;-0.396240;0.662482;-0.191507;-0.712790;-0.127955
28661;9.955971;-0.738241;-0.856912;0.007149;0.021961;-0.003588;-0.686523;0.261719;-0.395752;0.662627;-0.191643;-0.712616;-0.127971
28662;9.796473;-0.713182;-0.855139;0.004397;0.034655;-0.011321;-0.685547;0.266357;-0.396729;0.662849;-0.191557;-0.712424;-0.128025
28663;9.764833;-0.779545;-0.886395;0.002413;0.034986;-0.013568;-0.687744;0.263672;-0.393799;0.663073;-0.191566;-0.712194;-0.128125
28664;9.717109;-0.865159;-0.919057;0.016845;0.044733;-0.013961;-0.683838;0.264404;-0.393555;0.663339;-0.191423;-0.711985;-0.128126
28665;9.732503;-0.864560;-0.910431;0.033757;0.041424;-0.013807;-0.683105;0.260742;-0.399170;0.663630;-0.191189;-0.711799;-0.128000
28666;9.743714;-0.747978;-0.908012;0.038118;0.042037;-0.026693;-0.691162;0.271729;-0.398926;0.663963;-0.190808;-0.711601;-0.127945
28667;9.742373;-0.637924;-0.939103;0.028146;0.033471;-0.029240;-0.692871;0.262207;-0.395996;0.664149;-0.190773;-0.711423;-0.128018
28668;9.671764;-0.576846;-0.907286;0.004614;0.026376;-0.029596;-0.684570;0.269775;-0.391113;0.664221;-0.190658;-0.711360;-0.128169
28669;9.724054;-0.679691;-0.924524;-0.020194;0.011591;-0.023702;-0.687744;0.263672;-0.395020;0.664181;-0.190823;-0.711318;-0.128363
28670;9.868877;-0.835659;-0.873911;-0.026983;0.013588;-0.016619;-0.682861;0.261719;-0.394775;0.664162;-0.190969;-0.711256;-0.128590
28671;9.888107;-0.929453;-0.841496;0.000134;0.028945;-0.014236;-0.686523;0.263672;-0.395996;0.664316;-0.190888;-0.711125;-0.128634
28672;9.864794;-0.872573;-0.846938;0.033709;0.029309;-0.018349;-0.691650;0.257080;-0.400146;0.664499;-0.190679;-0.711028;-0.128536
28673;9.833706;-0.741449;-0.860415;0.043922;0.028456;-0.023354;-0.684570;0.263672;-0.406982;0.664689;-0.190286;-0.710975;-0.128430
28674;9.753834;-0.658802;-0.870502;0.025712;0.026510;-0.016426;-0.687012;0.268311;-0.401367;0.664942;-0.190214;-0.710754;-0.128453
28675;9.737371;-0.636880;-0.826336;0.002123;0.012832;-0.006731;-0.689697;0.265625;-0.406006;0.665008;-0.190435;-0.710620;-0.128518
28676;9.745606;-0.719485;-0.827263;-0.007222;0.006631;-0.006682;-0.694824;0.260010;-0.402344;0.665042;-0.190698;-0.710489;-0.128683
28677;9.699479;-0.774888;-0.852457;-0.005452;0.023468;-0.017673;-0.682617;0.260010;-0.392822;0.665103;-0.190727;-0.710387;-0.128886
28678;9.678618;-0.746955;-0.911579;0.003620;0.031815;-0.012912;-0.681885;0.263184;-0.394043;0.665249;-0.190562;-0.710303;-0.128839
28679;9.719741;-0.613656;-0.907876;-0.001370;0.030026;-0.002159;-0.689697;0.263916;-0.393066;0.665391;-0.190592;-0.710171;-0.128792
28680;9.742753;-0.511604;-0.897292;-0.030906;0.025839;0.003904;-0.688965;0.263428;-0.410156;0.665392;-0.190874;-0.710072;-0.128915
28681;9.712606;-0.537379;-0.753018;-0.089282;0.010623;0.013819;-0.688232;0.262695;-0.396729;0.665369;-0.191664;-0.709775;-0.129491
28682;9.653675;-0.691154;-0.734595;-0.127676;-0.006360;0.020378;-0.686279;0.267090;-0.401611;0.665086;-0.192566;-0.709690;-0.130073
28683;9.782631;-0.933322;-0.912294;-0.134945;-0.008126;0.021528;-0.686035;0.272705;-0.402100;0.664840;-0.193639;-0.709502;-0.130763
28684;9.726269;-1.123553;-0.804669;-0.100685;-0.008479;0.017512;-0.680420;0.265381;-0.389893;0.664645;-0.194622;-0.709315;-0.131304
28685;9.797257;-1.071704;-0.737975;-0.041711;-0.040711;0.005764;-0.687988;0.267090;-0.391846;0.664305;-0.194890;-0.709564;-0.131282
28686;9.847103;-0.882391;-0.636607;0.020653;-0.032913;-0.022767;-0.689941;0.265625;-0.399658;0.664045;-0.194743;-0.709874;-0.131145
28687;9.839706;-0.704322;-0.558597;0.050262;-0.001480;-0.042210;-0.679932;0.260742;-0.398193;0.664060;-0.194332;-0.709982;-0.131090
28688;9.818354;-0.564454;-0.677681;0.032404;0.018619;-0.045066;-0.675781;0.270020;-0.400391;0.664241;-0.193807;-0.709956;-0.131092
28689;9.857603;-0.524854;-0.740776;0.013351;0.035142;-0.052627;-0.684082;0.272217;-0.393555;0.664514;-0.193584;-0.709717;-0.131332
28690;9.837162;-0.668260;-0.795627;0.006434;0.040268;-0.043072;-0.689453;0.270508;-0.400635;0.664679;-0.193495;-0.709547;-0.131550
28691;9.765253;-0.736617;-0.861735;0.015242;0.043434;-0.024999;-0.679688;0.263672;-0.398926;0.664914;-0.193497;-0.709294;-0.131719
28692;9.805689;-0.661698;-0.899877;0.027022;0.036079;-0.012119;-0.687744;0.264160;-0.397705;0.665206;-0.193284;-0.709096;-0.131622
28693;9.805417;-0.707722;-0.771520;0.020783;0.028920;-0.016511;-0.694336;0.266357;-0.402344;0.665357;-0.193122;-0.709003;-0.131602
28694;9.706897;-0.803124;-0.739574;0.022266;0.024274;-0.018895;-0.685059;0.270508;-0.401367;0.665460;-0.193072;-0.708905;-0.131681
28695;9.640041;-0.831818;-0.826746;0.046078;0.024444;-0.025068;-0.685547;0.263428;-0.402588;0.665650;-0.192920;-0.708781;-0.131611
28696;9.731250;-0.804305;-0.822161;0.057906;0.026136;-0.021353;-0.689697;0.260986;-0.405762;0.665886;-0.192558;-0.708691;-0.131431
28697;9.735846;-0.719957;-0.792964;0.062056;0.019205;-0.021877;-0.686279;0.265625;-0.407471;0.666078;-0.192174;-0.708646;-0.131266
28698;9.733602;-0.698742;-0.747526;0.059409;0.011790;-0.016210;-0.687012;0.260498;-0.404785;0.666254;-0.191982;-0.708562;-0.131100
28699;9.770149;-0.656919;-0.781540;0.065838;0.007852;-0.007521;-0.673340;0.259521;-0.400879;0.666404;-0.191657;-0.708569;-0.130779
28700;9.834778;-0.589474;-0.780154;0.059394;0.014879;0.005755;-0.695068;0.260498;-0.403320;0.666673;-0.191311;-0.708501;-0.130286
28701;9.867618;-0.572360;-0.793420;0.055643;0.020783;0.010205;-0.690674;0.256104;-0.398682;0.666815;-0.191155;-0.708467;-0.129968
28702;9.842137;-0.541248;-0.800287;0.042244;0.033526;0.012361;-0.684082;0.263672;-0.397461;0.667013;-0.190889;-0.708416;-0.129622
28703;9.746483;-0.444464;-0.790148;0.020721;0.035133;0.027302;-0.677002;0.266846;-0.402344;0.667224;-0.190985;-0.708248;-0.129309
28704;9.708880;-0.423441;-0.830064;-0.027800;0.023621;0.029604;-0.688477;0.271973;-0.405273;0.667377;-0.191469;-0.707977;-0.129292
28705;9.784803;-0.655841;-0.733984;-0.060472;0.017315;0.029122;-0.677490;0.259277;-0.406982;0.667362;-0.192316;-0.707707;-0.129587
28706;9.776109;-0.899412;-0.689539;-0.053250;0.021573;0.017529;-0.685303;0.261475;-0.403076;0.667493;-0.192680;-0.707445;-0.129805
28707;9.716190;-0.907680;-0.682104;-0.011808;0.028030;0.014086;-0.673584;0.260986;-0.402588;0.667626;-0.192817;-0.707281;-0.129809
28708;9.689974;-0.748238;-0.725901;0.008599;0.031894;-0.003572;-0.675781;0.262207;-0.406738;0.667882;-0.192665;-0.707098;-0.129714
28709;9.710405;-0.742992;-0.624914;0.002461;0.027655;-0.008192;-0.685059;0.261719;-0.410156;0.668107;-0.192601;-0.706898;-0.129743
28710;9.727463;-0.812902;-0.695114;0.000323;0.018455;-0.000079;-0.686035;0.270996;-0.400635;0.668238;-0.192653;-0.706747;-0.129812
28711;9.720405;-0.829105;-0.776841;0.008912;0.018814;-0.001230;-0.684082;0.266602;-0.404785;0.668277;-0.192800;-0.706677;-0.129774
28712;9.782416;-0.741590;-0.732992;0.011990;0.011218;-0.006640;-0.683594;0.273926;-0.406250;0.668325;-0.192823;-0.706629;-0.129751
28713;9.838536;-0.745688;-0.704626;0.010143;0.008376;-0.011388;-0.681885;0.265381;-0.405518;0.668352;-0.193019;-0.706540;-0.129808
28714;9.850182;-0.786437;-0.703936;0.014979;0.003114;-0.010886;-0.677979;0.261963;-0.403564;0.668377;-0.192972;-0.706538;-0.129765
28715;9.795049;-0.729236;-0.695759;0.033456;0.012126;-0.009523;-0.682861;0.264404;-0.404541;0.668504;-0.192704;-0.706529;-0.129554
28716;9.800404;-0.579622;-0.770198;0.038296;0.017173;-0.006674;-0.686768;0.264648;-0.406982;0.668635;-0.192512;-0.706492;-0.129361
28717;9.854181;-0.478550;-0.777918;0.010595;0.024257;-0.004019;-0.681152;0.269531;-0.399414;0.668753;-0.192525;-0.706374;-0.129380
28718;9.844291;-0.572058;-0.747111;-0.027121;0.027072;-0.000953;-0.682373;0.263916;-0.405518;0.668799;-0.192793;-0.706234;-0.129510
28719;9.661390;-0.728298;-0.664807;-0.036753;0.024205;0.004325;-0.686768;0.263916;-0.405273;0.668866;-0.193059;-0.706060;-0.129715
28720;9.662268;-0.748574;-0.683487;-0.023488;0.015841;0.005135;-0.683838;0.269531;-0.404297;0.668870;-0.193267;-0.705975;-0.129846
28721;9.806744;-0.694174;-0.746236;-0.017496;0.021459;0.001806;-0.678467;0.263672;-0.404053;0.668919;-0.193528;-0.705834;-0.129970
28722;9.912587;-0.787165;-0.692430;-0.019077;0.031680;-0.003652;-0.677734;0.264404;-0.405518;0.669065;-0.193585;-0.705659;-0.130083
28723;9.834339;-0.862718;-0.698758;-0.005843;0.035493;-0.009581;-0.681152;0.264404;-0.400146;0.669261;-0.193554;-0.705465;-0.130174
28724;9.671237;-0.810593;-0.647410;0.018716;0.023308;0.001126;-0.669922;0.276123;-0.398438;0.669363;-0.193432;-0.705433;-0.130002
28725;9.636570;-0.734568;-0.677021;0.020860;0.005191;0.006790;-0.682129;0.266602;-0.414062;0.669412;-0.193614;-0.705382;-0.129759
28726;9.756536;-0.723347;-0.683001;0.011182;0.005417;0.003399;-0.686035;0.271729;-0.405518;0.669500;-0.193711;-0.705275;-0.129746
28727;9.794063;-0.809496;-0.680557;0.007488;0.012484;-0.002876;-0.674072;0.270752;-0.400879;0.669508;-0.193856;-0.705224;-0.129764
28728;9.817567;-0.842904;-0.646188;0.008695;0.008158;-0.010815;-0.681152;0.271729;-0.402588;0.669533;-0.193866;-0.705209;-0.129698
28729;9.731506;-0.793402;-0.631437;0.034748;0.009557;-0.018150;-0.692627;0.270508;-0.404785;0.669562;-0.193738;-0.705238;-0.129582
28730;9.678281;-0.618123;-0.691536;0.036508;0.009453;-0.013129;-0.682617;0.256104;-0.399658;0.669538;-0.193640;-0.705304;-0.129496
28731;9.786310;-0.601894;-0.718591;0.002673;0.013497;-0.014715;-0.684326;0.264404;-0.408203;0.669537;-0.193302;-0.705411;-0.129423
28732;9.866480;-0.659220;-0.678246;-0.022350;0.015828;-0.011094;-0.683594;0.255127;-0.410156;0.669553;-0.193406;-0.705327;-0.129643
28733;9.827039;-0.739348;-0.642097;-0.029139;0.011676;-0.006244;-0.679932;0.264160;-0.404053;0.669575;-0.193361;-0.705286;-0.129821
28734;9.703955;-0.780883;-0.624474;-0.015515;0.015092;-0.017710;-0.680176;0.269043;-0.401123;0.669586;-0.193353;-0.705247;-0.129982
28735;9.753385;-0.799686;-0.679809;-0.011354;0.018445;-0.015803;-0.679688;0.265625;-0.415039;0.669591;-0.193438;-0.705192;-0.130128
28736;9.820928;-0.738935;-0.708873;-0.012217;0.017525;-0.004001;-0.687012;0.268555;-0.403564;0.669727;-0.193567;-0.704999;-0.130284
28737;9.791207;-0.717017;-0.688171;-0.008157;0.013074;0.007610;-0.677490;0.275879;-0.410400;0.669704;-0.193777;-0.704958;-0.130314
28738;9.771980;-0.718701;-0.647807;-0.002025;-0.002074;0.008009;-0.678711;0.266357;-0.407227;0.669710;-0.194152;-0.704846;-0.130332
28739;9.784535;-0.730964;-0.636597;0.000197;-0.000203;-0.002769;-0.685303;0.270508;-0.405518;0.669701;-0.194201;-0.704843;-0.130319
28740;9.769005;-0.760242;-0.649234;0.000778;0.008850;0.000803;-0.684814;0.265137;-0.411621;0.669687;-0.194354;-0.704810;-0.130340
28741;9.805697;-0.720703;-0.684249;-0.002278;0.003032;0.012525;-0.676025;0.273926;-0.400879;0.669707;-0.194504;-0.704754;-0.130319
28742;9.823784;-0.642151;-0.657281;0.005579;0.007831;0.012636;-0.676758;0.273193;-0.405273;0.669728;-0.194730;-0.704697;-0.130183
28743;9.793896;-0.621818;-0.637429;0.003791;0.010398;0.008469;-0.680664;0.263428;-0.402100;0.669786;-0.194941;-0.704595;-0.130121
28744;9.770011;-0.629779;-0.690482;-0.008672;0.015429;0.015174;-0.673584;0.264648;-0.408447;0.669828;-0.195000;-0.704557;-0.130022
28745;9.680893;-0.637404;-0.688346;-0.022804;0.011920;0.033306;-0.686768;0.269775;-0.404785;0.669936;-0.195301;-0.704386;-0.129934
28746;9.690433;-0.706525;-0.689418;-0.043156;-0.004212;0.046505;-0.676270;0.266846;-0.404053;0.669808;-0.195915;-0.704340;-0.129926
28747;9.755746;-0.731280;-0.631776;-0.047054;-0.006007;0.041060;-0.678467;0.270264;-0.410400;0.669726;-0.196418;-0.704282;-0.129897
28748;9.807543;-0.833371;-0.640907;-0.040116;0.003512;0.025649;-0.687744;0.276855;-0.406982;0.669728;-0.196869;-0.704135;-0.130003
28749;9.792020;-0.875716;-0.664827;-0.023818;0.005835;0.016578;-0.682129;0.272461;-0.404053;0.669665;-0.197304;-0.704051;-0.130123
28750;9.849061;-0.863106;-0.636630;-0.012512;-0.001020;0.015629;-0.681641;0.279785;-0.403564;0.669602;-0.197550;-0.704047;-0.130095
28751;9.866175;-0.874886;-0.666624;-0.004593;-0.000483;0.004478;-0.678223;0.270264;-0.408936;0.669532;-0.197841;-0.704026;-0.130127
28752;9.766952;-0.806220;-0.653553;0.009098;0.008886;0.003638;-0.674561;0.275391;-0.407471;0.669618;-0.197840;-0.703957;-0.130058
28753;9.690178;-0.696320;-0.676645;0.010113;0.014423;0.010341;-0.679199;0.279297;-0.398438;0.669746;-0.197971;-0.703816;-0.129964
28754;9.769085;-0.621874;-0.661667;-0.005085;0.018824;0.015395;-0.674316;0.273682;-0.403564;0.669777;-0.198253;-0.703717;-0.129912
28755;9.816771;-0.733401;-0.637716;-0.024052;0.008508;0.020190;-0.673340;0.277344;-0.410889;0.669798;-0.198565;-0.703610;-0.129909
28756;9.840062;-0.840875;-0.659204;-0.029525;0.008423;0.017375;-0.681641;0.274170;-0.407715;0.669858;-0.198997;-0.703407;-0.130030
28757;9.776005;-0.869895;-0.635264;-0.013688;0.010053;0.005060;-0.683105;0.270264;-0.407959;0.669874;-0.199170;-0.703329;-0.130109
28758;9.796908;-0.849282;-0.672573;-0.003670;0.005205;0.002810;-0.678223;0.277344;-0.409424;0.669876;-0.199189;-0.703321;-0.130112
28759;9.819806;-0.757940;-0.675573;-0.000357;0.005820;0.006110;-0.680664;0.278076;-0.400879;0.669917;-0.199368;-0.703230;-0.130120
28760;9.792355;-0.736418;-0.676664;-0.000095;0.007921;0.012584;-0.676270;0.270020;-0.410400;0.669902;-0.199549;-0.703208;-0.130040
28761;9.749724;-0.760703;-0.576884;-0.015452;0.009521;0.009545;-0.678223;0.280029;-0.414307;0.669974;-0.199659;-0.703102;-0.130070
28762;9.722609;-0.809258;-0.633334;-0.009342;0.003435;0.011845;-0.676758;0.278320;-0.408203;0.670022;-0.199984;-0.702951;-0.130141
28763;9.734927;-0.883314;-0.665844;-0.000931;0.002748;0.013079;-0.668701;0.278564;-0.406494;0.670049;-0.200197;-0.702874;-0.130094
28764;9.803745;-0.795857;-0.684126;0.000953;0.011666;0.008884;-0.680908;0.269043;-0.405518;0.670160;-0.200351;-0.702735;-0.130030
28765;9.785659;-0.767444;-0.630970;0.006539;0.009810;0.009657;-0.677490;0.273193;-0.406982;0.670208;-0.200272;-0.702736;-0.129899
28766;9.819031;-0.759978;-0.656817;-0.005735;0.004364;0.011216;-0.678467;0.276611;-0.398193;0.670227;-0.200370;-0.702699;-0.129848
28767;9.801967;-0.821303;-0.681723;-0.011977;0.003300;0.009051;-0.672119;0.278809;-0.407471;0.670155;-0.200523;-0.702731;-0.129812
28768;9.737029;-0.830503;-0.636702;-0.006450;0.007574;0.012008;-0.678711;0.276123;-0.404297;0.670219;-0.200734;-0.702615;-0.129785
28769;9.787295;-0.763957;-0.637842;-0.004922;-0.001446;0.017900;-0.680420;0.278564;-0.406494;0.670184;-0.200907;-0.702618;-0.129686
28770;9.846317;-0.800739;-0.663283;-0.017696;0.008333;0.010738;-0.685059;0.277344;-0.402832;0.670179;-0.201151;-0.702540;-0.129753
28771;9.822794;-0.884472;-0.647172;-0.020483;0.013815;0.011292;-0.672852;0.280273;-0.404053;0.670154;-0.201364;-0.702489;-0.129829
28772;9.719263;-0.887983;-0.646817;-0.005336;0.015513;0.008457;-0.678467;0.277832;-0.404297;0.670233;-0.201531;-0.702368;-0.129816
28773;9.657828;-0.788976;-0.679112;0.003035;0.008170;0.008678;-0.678467;0.277588;-0.409180;0.670257;-0.201605;-0.702337;-0.129744
28774;9.719093;-0.753875;-0.669573;-0.016070;0.001719;0.006378;-0.677246;0.283936;-0.417969;0.670243;-0.201784;-0.702287;-0.129808
28775;9.807746;-0.878307;-0.633664;-0.031189;-0.003650;0.007887;-0.673340;0.281494;-0.403320;0.670232;-0.202205;-0.702137;-0.130020
28776;9.853589;-1.018961;-0.624937;-0.014960;-0.003783;0.009137;-0.676758;0.284180;-0.405762;0.670174;-0.202445;-0.702123;-0.130025
28777;9.799632;-0.992935;-0.650832;0.015217;0.005880;-0.002669;-0.678467;0.282715;-0.402344;0.670206;-0.202492;-0.702088;-0.129976
28778;9.735615;-0.882835;-0.651767;0.043556;0.010822;-0.010153;-0.680176;0.283691;-0.404541;0.670277;-0.202289;-0.702114;-0.129787
28779;9.723918;-0.759846;-0.583551;0.040079;0.002400;-0.003817;-0.676514;0.279053;-0.398926;0.670301;-0.202183;-0.702156;-0.129595
28780;9.748650;-0.707483;-0.630165;0.018975;-0.001928;0.001998;-0.681641;0.280273;-0.411621;0.670261;-0.202123;-0.702246;-0.129412
28781;9.815093;-0.739835;-0.717561;-0.003635;0.001534;0.001490;-0.673340;0.286133;-0.403564;0.670256;-0.202252;-0.702203;-0.129468
28782;9.809819;-0.792125;-0.708538;-0.011297;0.017222;0.003232;-0.679199;0.287598;-0.405518;0.670315;-0.202502;-0.702060;-0.129551
28783;9.783205;-0.796368;-0.604917;-0.012683;0.015625;0.011711;-0.677246;0.279785;-0.409424;0.670350;-0.202836;-0.701915;-0.129629
28784;9.749659;-0.807518;-0.576095;-0.010883;0.009366;0.014557;-0.677979;0.275391;-0.399414;0.670401;-0.203042;-0.701806;-0.129638
28785;9.730984;-0.829268;-0.557263;-0.015221;0.005673;0.005434;-0.674805;0.283203;-0.413086;0.670353;-0.203085;-0.701841;-0.129624
28786;9.787210;-0.915742;-0.594950;-0.015848;0.010625;0.005498;-0.675293;0.282227;-0.402588;0.670425;-0.203329;-0.701680;-0.129742
28787;9.805865;-0.955994;-0.654452;-0.001075;0.023709;0.001006;-0.677002;0.279053;-0.413818;0.670525;-0.203388;-0.701564;-0.129757
28788;9.790699;-0.859306;-0.700698;0.012427;0.018579;0.008842;-0.670654;0.281738;-0.406738;0.670692;-0.203400;-0.701415;-0.129687
28789;9.730753;-0.806547;-0.650883;0.006529;0.009809;0.009649;-0.675293;0.282471;-0.406738;0.670779;-0.203483;-0.701326;-0.129587
28790;9.695852;-0.847392;-0.635700;-0.005539;-0.007384;0.005677;-0.677490;0.287109;-0.402832;0.670714;-0.203637;-0.701346;-0.129570
28791;9.713804;-0.954624;-0.619215;-0.011240;-0.015130;0.004164;-0.668457;0.292480;-0.405762;0.670554;-0.203890;-0.701421;-0.129596
28792;9.831230;-1.004274;-0.650781;0.000835;-0.005154;-0.002821;-0.677246;0.276611;-0.408691;0.670522;-0.204133;-0.701375;-0.129627
28793;9.868725;-0.903092;-0.640980;0.021325;0.014446;-0.006234;-0.676025;0.281982;-0.405518;0.670634;-0.203930;-0.701343;-0.129535
28794;9.765080;-0.758046;-0.655120;0.030224;0.011964;-0.002588;-0.675781;0.288574;-0.410400;0.670728;-0.203792;-0.701323;-0.129378
28795;9.752806;-0.686247;-0.620769;0.011110;0.002405;0.003744;-0.670410;0.283936;-0.412598;0.670760;-0.203946;-0.701253;-0.129345
28796;9.801075;-0.825732;-0.631312;-0.015460;-0.001994;0.006734;-0.678955;0.281494;-0.413330;0.670769;-0.204197;-0.701159;-0.129414
28797;9.848031;-0.995921;-0.653576;-0.008984;0.006738;0.007593;-0.671875;0.287354;-0.414062;0.670807;-0.204361;-0.701064;-0.129474
28798;9.832716;-0.976029;-0.632296;0.018190;0.008636;0.005413;-0.674561;0.282227;-0.413086;0.670930;-0.204461;-0.700930;-0.129402
28799;9.766763;-0.817473;-0.579053;0.026205;0.014566;-0.005108;-0.680908;0.286133;-0.401855;0.671075;-0.204356;-0.700835;-0.129330
28800;9.724380;-0.772304;-0.558987;0.013727;0.012451;-0.009452;-0.668945;0.293701;-0.409668;0.671081;-0.204305;-0.700847;-0.129315
28801;9.766664;-0.865949;-0.608985;0.000789;-0.000246;-0.001080;-0.674805;0.279785;-0.399902;0.671092;-0.204561;-0.700754;-0.129361
28802;9.812199;-0.919067;-0.657665;0.005745;0.002841;-0.000234;-0.673096;0.281494;-0.406006;0.671065;-0.204490;-0.700820;-0.129253
28803;9.822563;-0.941886;-0.635880;0.027069;0.001396;-0.001026;-0.669434;0.283691;-0.400879;0.671105;-0.204365;-0.700852;-0.129072
28804;9.777941;-0.908187;-0.607683;0.037434;0.003481;-0.006158;-0.672363;0.292480;-0.407715;0.671154;-0.204167;-0.700906;-0.128834
28805;9.739976;-0.851980;-0.619638;0.038623;-0.000277;-0.004117;-0.671875;0.287109;-0.411377;0.671198;-0.204161;-0.700896;-0.128670
28806;9.758703;-0.831295;-0.636969;0.031005;0.000177;-0.006453;-0.668701;0.282959;-0.404785;0.671258;-0.204111;-0.700874;-0.128557
28807;9.783237;-0.844329;-0.602856;0.027700;-0.000438;-0.009757;-0.671143;0.290039;-0.411865;0.671287;-0.203958;-0.700919;-0.128405
28808;9.744441;-0.827728;-0.638121;0.023410;-0.001827;-0.009654;-0.672607;0.286133;-0.408447;0.671319;-0.203989;-0.700886;-0.128368
28809;9.770699;-0.819241;-0.603218;0.017557;0.000373;-0.016035;-0.675293;0.286865;-0.403809;0.671325;-0.203930;-0.700897;-0.128367
28810;9.839738;-0.913981;-0.629870;0.008908;-0.001055;-0.023737;-0.678711;0.288574;-0.404297;0.671263;-0.203863;-0.700964;-0.128438
28811;9.785441;-1.000711;-0.608759;0.022889;-0.003593;-0.021723;-0.673096;0.281250;-0.409668;0.671197;-0.203764;-0.701055;-0.128435
28812;9.698237;-0.920200;-0.564866;0.042277;-0.011455;-0.017473;-0.677246;0.284424;-0.403564;0.671187;-0.203505;-0.701173;-0.128263
28813;9.731792;-0.772457;-0.618538;0.050098;-0.002979;-0.016080;-0.675049;0.283936;-0.411133;0.671186;-0.203223;-0.701296;-0.128040
28814;9.785799;-0.720269;-0.661556;0.027056;0.007642;-0.018426;-0.676514;0.282715;-0.404297;0.671255;-0.203087;-0.701271;-0.128028
28815;9.785769;-0.783798;-0.579324;0.000509;0.004405;-0.014914;-0.678955;0.283203;-0.406738;0.671222;-0.203065;-0.701296;-0.128097
28816;9.751766;-0.891617;-0.618928;-0.005662;-0.005911;-0.010557;-0.678467;0.280518;-0.417236;0.671125;-0.203137;-0.701352;-0.128188
28817;9.774946;-0.984040;-0.630561;0.007898;-0.000600;-0.019927;-0.675781;0.280518;-0.409180;0.671132;-0.203089;-0.701335;-0.128316
28818;9.795066;-0.929925;-0.636258;0.033070;0.002937;-0.024049;-0.673828;0.280273;-0.407715;0.671169;-0.202831;-0.701385;-0.128265
28819;9.844457;-0.827687;-0.604777;0.035772;0.004840;-0.022016;-0.672852;0.291260;-0.411621;0.671224;-0.202560;-0.701427;-0.128172
28820;9.803079;-0.750140;-0.575112;0.028874;-0.001034;-0.016448;-0.668945;0.276367;-0.403320;0.671249;-0.202570;-0.701402;-0.128163
28821;9.740995;-0.814884;-0.594841;0.018953;0.004320;-0.015387;-0.675049;0.276855;-0.408936;0.671282;-0.202347;-0.701453;-0.128062
28822;9.808102;-0.844979;-0.680378;0.025536;0.009909;-0.017053;-0.674805;0.277344;-0.411865;0.671358;-0.202119;-0.701457;-0.128005
28823;9.770104;-0.802954;-0.577285;0.029218;0.009500;-0.009759;-0.675293;0.285889;-0.409912;0.671458;-0.201940;-0.701430;-0.127906
28824;9.754356;-0.771183;-0.545561;0.017839;0.002423;-0.001283;-0.667725;0.279785;-0.406006;0.671484;-0.202007;-0.701396;-0.127850
28825;9.753128;-0.851866;-0.589663;0.008300;0.001917;-0.006290;-0.674561;0.281250;-0.398193;0.671506;-0.201983;-0.701392;-0.127796
28826;9.754064;-0.921136;-0.642854;0.015142;0.011490;-0.010602;-0.678223;0.273682;-0.413574;0.671519;-0.201867;-0.701426;-0.127725
28827;9.806681;-0.966428;-0.615413;0.036186;0.004941;-0.009270;-0.672119;0.281738;-0.411865;0.671602;-0.201605;-0.701450;-0.127571
28828;9.824732;-0.873714;-0.577565;0.047645;0.004654;-0.020351;-0.666504;0.278076;-0.406738;0.671697;-0.201339;-0.701462;-0.127429
28829;9.760593;-0.887487;-0.542561;0.049694;0.006711;-0.028385;-0.672852;0.276123;-0.406494;0.671798;-0.200939;-0.701509;-0.127261
28830;9.711575;-0.846385;-0.598476;0.049377;-0.001454;-0.025874;-0.679932;0.278564;-0.408691;0.671826;-0.200539;-0.701630;-0.127076
28831;9.754528;-0.761180;-0.652614;0.039615;0.004290;-0.017615;-0.677979;0.276123;-0.408691;0.671859;-0.200288;-0.701692;-0.126959
28832;9.786391;-0.709428;-0.635622;0.017158;0.006888;-0.019646;-0.671875;0.275879;-0.403076;0.671876;-0.200117;-0.701722;-0.126971
28833;9.804587;-0.792697;-0.592972;-0.005101;0.007423;-0.015314;-0.683350;0.282471;-0.408203;0.671861;-0.200079;-0.701734;-0.127051
28834;9.746668;-0.952702;-0.583647;-0.004695;-0.002736;-0.013112;-0.676025;0.276367;-0.406250;0.671761;-0.200176;-0.701776;-0.127189
28835;9.717905;-0.998620;-0.619762;0.015629;0.003699;-0.018759;-0.671143;0.273438;-0.413086;0.671755;-0.200022;-0.701826;-0.127188
28836;9.755728;-0.864490;-0.600236;0.034385;-0.000324;-0.014928;-0.677979;0.278320;-0.414795;0.671819;-0.199771;-0.701862;-0.127044
28837;9.862949;-0.777192;-0.574434;0.031846;-0.006646;-0.019849;-0.682373;0.284180;-0.401611;0.671812;-0.199591;-0.701932;-0.126984
28838;9.869710;-0.817332;-0.533565;0.027337;-0.003550;-0.025228;-0.677979;0.279053;-0.404785;0.671717;-0.199456;-0.702060;-0.126987
28839;9.788013;-0.857288;-0.617376;0.036568;0.003378;-0.015357;-0.675781;0.279297;-0.406006;0.671729;-0.199259;-0.702126;-0.126865
28840;9.749103;-0.739992;-0.585970;0.043644;0.010830;-0.004993;-0.673584;0.274658;-0.410156;0.671822;-0.199088;-0.702123;-0.126659
28841;9.709588;-0.613325;-0.544057;0.026670;0.004404;-0.006014;-0.680664;0.272461;-0.411865;0.671881;-0.198957;-0.702127;-0.126528
28842;9.764953;-0.759179;-0.602856;-0.003148;0.005868;-0.013491;-0.677490;0.275635;-0.411133;0.671874;-0.198915;-0.702128;-0.126628
28843;9.802531;-0.934412;-0.653442;-0.004450;0.015767;-0.013457;-0.682861;0.270020;-0.409912;0.671928;-0.198920;-0.702051;-0.126760
28844;9.742836;-0.938946;-0.648319;0.018418;0.009733;-0.008287;-0.671387;0.274902;-0.408203;0.671967;-0.198744;-0.702074;-0.126697
28845;9.733645;-0.793908;-0.603142;0.032514;-0.004363;-0.000580;-0.662109;0.276855;-0.405518;0.671986;-0.198628;-0.702128;-0.126482
28846;9.725481;-0.720308;-0.613321;0.022721;-0.007673;-0.002475;-0.677734;0.282959;-0.405762;0.671987;-0.198594;-0.702167;-0.126315
28847;9.782550;-0.754991;-0.618235;0.001687;-0.001217;-0.003775;-0.668213;0.273438;-0.406982;0.671923;-0.198744;-0.702177;-0.126363
28848;9.806129;-0.798874;-0.595556;-0.004418;0.001758;0.002594;-0.678467;0.272705;-0.406494;0.671928;-0.198826;-0.702153;-0.126339
28849;9.792656;-0.818635;-0.617939;-0.002546;0.006387;0.006559;-0.681152;0.274170;-0.412109;0.671926;-0.198893;-0.702142;-0.126307
28850;9.764579;-0.786416;-0.609385;0.006982;0.002120;0.001454;-0.677002;0.278809;-0.407715;0.671928;-0.198905;-0.702145;-0.126264
28851;9.702041;-0.793460;-0.585797;0.006941;-0.002078;0.001356;-0.674805;0.279297;-0.421875;0.671892;-0.198990;-0.702161;-0.126228
28852;9.790070;-0.820110;-0.597240;0.000782;-0.006906;-0.002034;-0.675537;0.280273;-0.411133;0.671897;-0.199114;-0.702116;-0.126257
28853;9.800646;-0.841719;-0.575654;-0.002311;0.006758;-0.005773;-0.669434;0.282959;-0.406250;0.671913;-0.199221;-0.702056;-0.126339
28854;9.775723;-0.817963;-0.597871;0.007117;0.006824;0.000379;-0.674561;0.277100;-0.413330;0.671946;-0.199348;-0.701990;-0.126326
28855;9.727680;-0.761434;-0.653417;0.005837;0.005777;0.007754;-0.676758;0.284668;-0.408447;0.672002;-0.199445;-0.701920;-0.126267
28856;9.772084;-0.735543;-0.635663;-0.002887;0.008569;0.011343;-0.668945;0.279053;-0.410156;0.672022;-0.199704;-0.701825;-0.126281
28857;9.756453;-0.716016;-0.615375;-0.024155;0.003159;0.011343;-0.669189;0.277100;-0.409668;0.672017;-0.200013;-0.701726;-0.126365
28858;9.803889;-0.815864;-0.580940;-0.037849;-0.001382;0.014043;-0.675049;0.274414;-0.407471;0.671965;-0.200383;-0.701647;-0.126493
28859;9.813830;-0.931576;-0.614811;-0.039201;-0.002335;0.013015;-0.670166;0.274658;-0.407471;0.671876;-0.200698;-0.701620;-0.126617
28860;9.795159;-0.953297;-0.596839;-0.009179;0.005699;0.009966;-0.679443;0.280518;-0.407715;0.671901;-0.200821;-0.701567;-0.126588
28861;9.759028;-0.848089;-0.597329;0.020839;0.007066;0.005978;-0.680420;0.278320;-0.402832;0.671941;-0.200823;-0.701551;-0.126460
28862;9.736356;-0.724341;-0.574755;0.019475;0.004282;0.014091;-0.675537;0.283203;-0.414062;0.671945;-0.200843;-0.701576;-0.126270
28863;9.804758;-0.688656;-0.627543;-0.011391;0.000200;0.019491;-0.680420;0.277344;-0.403564;0.671947;-0.201159;-0.701484;-0.126263
28864;9.831981;-0.830529;-0.575130;-0.033922;0.008914;0.019596;-0.673340;0.287354;-0.405273;0.671900;-0.201483;-0.701420;-0.126355
28865;9.777259;-0.964219;-0.573750;-0.021540;0.010029;0.015032;-0.680908;0.278320;-0.406494;0.671898;-0.201859;-0.701295;-0.126456
28866;9.754747;-0.942131;-0.616212;0.009305;0.008665;0.009125;-0.675537;0.280273;-0.413330;0.671925;-0.201881;-0.701281;-0.126358
28867;9.766877;-0.829145;-0.641147;0.020885;0.011252;0.006081;-0.676514;0.278076;-0.411865;0.672033;-0.201858;-0.701208;-0.126226
28868;9.756477;-0.757056;-0.627803;0.002619;0.014738;0.005090;-0.668701;0.282471;-0.409668;0.672119;-0.201893;-0.701119;-0.126198
28869;9.784514;-0.790992;-0.633753;-0.023853;0.010143;0.008305;-0.669922;0.278076;-0.410889;0.672149;-0.202170;-0.700991;-0.126313
28870;9.822411;-0.888149;-0.640969;-0.031726;0.007781;0.009090;-0.669434;0.284424;-0.403320;0.672158;-0.202429;-0.700885;-0.126438
28871;9.766579;-0.949896;-0.586253;-0.024309;0.005159;0.013298;-0.670898;0.289062;-0.411865;0.672126;-0.202756;-0.700805;-0.126525
28872;9.739460;-0.939033;-0.599255;-0.008790;0.003444;0.013536;-0.676270;0.283691;-0.414551;0.672144;-0.203058;-0.700696;-0.126551
28873;9.758444;-0.930627;-0.627290;0.004488;0.004802;0.006743;-0.680420;0.284180;-0.416992;0.672186;-0.203158;-0.700633;-0.126514
28874;9.828415;-0.937202;-0.596561;0.007503;0.010063;-0.003859;-0.667236;0.280518;-0.403809;0.672249;-0.203176;-0.700563;-0.126540
28875;9.768041;-0.881746;-0.548344;0.023281;0.012326;-0.006282;-0.675781;0.275879;-0.403076;0.672334;-0.203043;-0.700540;-0.126433
28876;9.729904;-0.876173;-0.592740;0.022755;0.008661;-0.009234;-0.674805;0.278320;-0.410889;0.672364;-0.202826;-0.700593;-0.126324
28877;9.734767;-0.863415;-0.621595;0.015964;0.007567;-0.013047;-0.672363;0.285889;-0.413330;0.672411;-0.202668;-0.700599;-0.126296
28878;9.792745;-0.981593;-0.563964;0.017080;0.006374;-0.018495;-0.674805;0.284180;-0.409668;0.672458;-0.202582;-0.700572;-0.126333
28879;9.762653;-1.048021;-0.599939;0.037531;-0.000091;-0.018839;-0.673584;0.286133;-0.400391;0.672477;-0.202363;-0.700634;-0.126236
28880;9.758012;-0.930572;-0.607965;0.059261;-0.008552;-0.017857;-0.673340;0.288330;-0.414551;0.672441;-0.202070;-0.700795;-0.126006
28881;9.784282;-0.804986;-0.623003;0.061384;-0.007821;-0.017964;-0.672607;0.272949;-0.414551;0.672479;-0.201800;-0.700877;-0.125781
28882;9.770277;-0.761430;-0.603981;0.040068;-0.013796;-0.008434;-0.674561;0.280762;-0.408691;0.672472;-0.201512;-0.701012;-0.125523
28883;9.780293;-0.823130;-0.605893;0.020577;-0.012022;-0.012025;-0.672119;0.282959;-0.407227;0.672397;-0.201416;-0.701124;-0.125455
28884;9.796886;-0.812027;-0.615169;0.018428;-0.004837;-0.010602;-0.674561;0.280273;-0.414551;0.672362;-0.201368;-0.701179;-0.125416
28885;9.788872;-0.853128;-0.575619;0.018064;-0.001416;-0.005404;-0.670410;0.287109;-0.411621;0.672381;-0.201310;-0.701190;-0.125341
28886;9.773353;-0.831124;-0.556384;0.014487;-0.003596;-0.005166;-0.675293;0.270752;-0.413574;0.672375;-0.201373;-0.701181;-0.125320
28887;9.754457;-0.891066;-0.560524;0.015389;-0.004572;-0.007851;-0.681641;0.285645;-0.410400;0.672370;-0.201195;-0.701256;-0.125214
28888;9.758678;-0.919927;-0.613444;0.018807;-0.005859;-0.006589;-0.667969;0.287598;-0.413330;0.672317;-0.201191;-0.701315;-0.125178
28889;9.790196;-0.869677;-0.597975;0.025420;0.002730;-0.008671;-0.678711;0.280273;-0.409424;0.672378;-0.201177;-0.701270;-0.125123
28890;9.797700;-0.765476;-0.594215;0.015966;0.002076;-0.005254;-0.677490;0.287842;-0.415039;0.672377;-0.201126;-0.701294;-0.125074
28891;9.781121;-0.723274;-0.553155;-0.001095;0.003008;-0.003692;-0.679199;0.283691;-0.413818;0.672378;-0.201279;-0.701234;-0.125162
28892;9.732729;-0.770904;-0.549894;-0.019984;-0.003167;-0.006916;-0.673096;0.280029;-0.409424;0.672299;-0.201470;-0.701221;-0.125348
28893;9.729107;-0.892412;-0.595342;-0.026826;-0.000591;-0.009450;-0.673340;0.274658;-0.406982;0.672225;-0.201639;-0.701206;-0.125560
28894;9.757976;-0.984834;-0.646931;-0.012917;-0.007196;-0.007584;-0.673584;0.286865;-0.410400;0.672132;-0.201676;-0.701271;-0.125634
28895;9.817830;-0.926793;-0.618547;0.015696;-0.007327;-0.003078;-0.668213;0.279053;-0.415527;0.672096;-0.201733;-0.701297;-0.125589
28896;9.819497;-0.813791;-0.564703;0.020094;-0.007853;-0.005254;-0.671143;0.288574;-0.400391;0.672108;-0.201669;-0.701323;-0.125482
28897;9.789424;-0.790471;-0.548228;0.009697;-0.008696;-0.007961;-0.668945;0.271973;-0.412109;0.672012;-0.201749;-0.701390;-0.125497
28898;9.780805;-0.847931;-0.634972;-0.004677;-0.002802;-0.013099;-0.674316;0.281006;-0.409424;0.671994;-0.201681;-0.701419;-0.125544
28899;9.772615;-0.929091;-0.616844;0.007890;0.002963;-0.010391;-0.678223;0.283691;-0.408447;0.671997;-0.201655;-0.701418;-0.125570
28900;9.709516;-0.808739;-0.631908;0.014579;0.003587;-0.005430;-0.682373;0.281494;-0.411865;0.672003;-0.201646;-0.701419;-0.125550
28901;9.717504;-0.623561;-0.585161;-0.003091;-0.002709;0.003099;-0.676758;0.285156;-0.406250;0.671955;-0.201761;-0.701428;-0.125569
28902;9.746966;-0.636414;-0.592996;-0.044379;-0.004002;0.007140;-0.669678;0.280029;-0.402832;0.671824;-0.202180;-0.701388;-0.125817
28903;9.817858;-0.870664;-0.590626;-0.069810;-0.003694;0.007066;-0.673340;0.288330;-0.405518;0.671664;-0.202682;-0.701333;-0.126174
28904;9.854276;-1.079624;-0.654882;-0.047930;-0.001965;0.007426;-0.671387;0.282227;-0.403320;0.671548;-0.203151;-0.701257;-0.126455
28905;9.783155;-1.054027;-0.663396;0.000636;0.002945;0.001350;-0.676758;0.286377;-0.401367;0.671540;-0.203228;-0.701244;-0.126451
28906;9.726151;-0.876240;-0.571882;0.025734;-0.000027;-0.003875;-0.670898;0.289551;-0.400146;0.671523;-0.203175;-0.701293;-0.126353
28907;9.737987;-0.761775;-0.599209;0.008437;-0.004301;-0.000070;-0.677002;0.282471;-0.405273;0.671465;-0.203299;-0.701313;-0.126346
28908;9.799944;-0.744960;-0.612784;-0.023429;-0.003681;0.000941;-0.672852;0.279541;-0.397949;0.671370;-0.203504;-0.701321;-0.126478
28909;9.791179;-0.868588;-0.617428;-0.045902;0.001302;-0.000209;-0.680176;0.288086;-0.406494;0.671249;-0.203786;-0.701309;-0.126731
28910;9.773429;-0.948923;-0.642781;-0.043584;0.003035;-0.002648;-0.672363;0.286865;-0.406250;0.671149;-0.204134;-0.701246;-0.127049
28911;9.782039;-0.980739;-0.611159;-0.014347;0.003452;-0.005998;-0.674316;0.289307;-0.410645;0.671121;-0.204295;-0.701199;-0.127201
28912;9.817116;-0.950324;-0.637425;0.005900;-0.002754;-0.003595;-0.668457;0.286377;-0.410889;0.671106;-0.204390;-0.701181;-0.127227
28913;9.815518;-0.919498;-0.605987;0.012359;-0.004301;-0.005089;-0.674805;0.290527;-0.408936;0.671111;-0.204418;-0.701174;-0.127199
28914;9.799145;-0.927650;-0.597882;0.012313;0.001218;-0.012965;-0.672607;0.288086;-0.408691;0.671109;-0.204430;-0.701161;-0.127255
28915;9.789359;-0.914117;-0.629274;0.017470;0.006519;-0.005720;-0.679199;0.279053;-0.401367;0.671163;-0.204426;-0.701115;-0.127234
28916;9.739784;-0.826312;-0.653048;0.019241;0.003986;-0.001527;-0.681152;0.284424;-0.405029;0.671170;-0.204296;-0.701170;-0.127104
28917;9.701871;-0.754853;-0.540647;0.003289;0.000670;0.003285;-0.668701;0.277588;-0.411621;0.671139;-0.204359;-0.701185;-0.127080
28918;9.740065;-0.786171;-0.631353;-0.016548;-0.008724;0.002616;-0.672119;0.283203;-0.407715;0.671087;-0.204486;-0.701192;-0.127110
28919;9.838794;-0.885984;-0.654014;-0.024145;-0.001698;0.001263;-0.673340;0.280762;-0.411133;0.671031;-0.204698;-0.701160;-0.127242
28920;9.873005;-1.003448;-0.642584;-0.021682;0.001680;0.006479;-0.675781;0.281250;-0.402100;0.671019;-0.204888;-0.701102;-0.127318
28921;9.844820;-0.971503;-0.634680;-0.002591;0.002189;0.006459;-0.666260;0.287598;-0.402100;0.670998;-0.204966;-0.701105;-0.127290
28922;9.738384;-0.926032;-0.584516;0.012835;-0.009709;0.015625;-0.674072;0.292236;-0.407959;0.670964;-0.205122;-0.701119;-0.127137
28923;9.708379;-0.865057;-0.546621;0.009021;-0.014045;0.009388;-0.675293;0.284180;-0.406250;0.670892;-0.205302;-0.701150;-0.127061
28924;9.832056;-0.897855;-0.494031;0.002649;-0.031975;0.006880;-0.666504;0.288818;-0.400635;0.670699;-0.205418;-0.701320;-0.126952
28925;10.108166;-1.081379;-0.575073;0.005551;-0.041769;-0.004898;-0.669678;0.288086;-0.399170;0.670439;-0.205536;-0.701542;-0.126907
28926;10.287548;-1.257399;-0.583968;0.062103;-0.031568;-0.031693;-0.677246;0.291992;-0.406738;0.670296;-0.205154;-0.701828;-0.126695
28927;10.273118;-1.345034;-0.515840;0.155712;-0.006396;-0.061396;-0.671387;0.285889;-0.407715;0.670438;-0.204087;-0.702098;-0.126171
28928;10.147218;-1.205513;-0.356375;0.248269;0.018150;-0.079686;-0.677490;0.280029;-0.402588;0.670881;-0.202329;-0.702355;-0.125216
28929;10.006762;-0.956749;-0.254958;0.302710;0.046480;-0.090983;-0.677002;0.280762;-0.410645;0.671529;-0.200108;-0.702582;-0.124030
28930;9.888258;-0.903079;-0.201212;0.330015;0.085370;-0.108299;-0.681641;0.278076;-0.411377;0.672450;-0.197643;-0.702603;-0.122871
28931;9.741594;-0.960743;-0.092695;0.358181;0.131287;-0.110616;-0.666016;0.274414;-0.410156;0.673659;-0.194953;-0.702411;-0.121640
28932;9.614248;-1.040974;-0.140455;0.381641;0.180145;-0.081143;-0.668457;0.262695;-0.415039;0.675236;-0.192287;-0.701881;-0.120184
28933;9.561088;-1.047024;-0.253239;0.429609;0.238198;-0.072205;-0.677979;0.273682;-0.417725;0.677234;-0.189228;-0.701087;-0.118426
28934;9.460519;-1.052774;-0.220604;0.479148;0.243435;-0.062582;-0.665527;0.264893;-0.424561;0.679288;-0.186094;-0.700270;-0.116439
28935;9.404774;-0.689587;-0.051458;0.513249;0.144640;-0.020553;-0.665039;0.260986;-0.431152;0.680889;-0.183074;-0.699941;-0.113826
28936;9.288681;-0.466848;0.039565;0.478879;0.043435;0.065044;-0.669434;0.252441;-0.431152;0.681926;-0.180841;-0.700002;-0.110774
28937;9.151330;-0.310957;0.239313;0.483606;-0.014579;0.125672;-0.665771;0.262451;-0.440674;0.682660;-0.178889;-0.700343;-0.107208
28938;9.225081;-0.276432;0.361891;0.582194;-0.027949;0.135316;-0.667725;0.257324;-0.432373;0.683485;-0.176619;-0.700731;-0.103103
28939;9.535553;-0.250010;0.380122;0.750590;-0.032707;0.133465;-0.668701;0.236572;-0.437500;0.684465;-0.173316;-0.701334;-0.097978
28940;9.875510;-0.054912;0.158727;0.899374;-0.023995;0.145787;-0.660889;0.241455;-0.436279;0.685708;-0.168998;-0.702011;-0.091782
28941;10.107376;0.393315;-0.232476;0.949781;-0.014032;0.181942;-0.661133;0.232422;-0.444336;0.687060;-0.164732;-0.702535;-0.085185
28942;10.171936;0.771469;-0.707915;0.879451;-0.013145;0.266233;-0.662842;0.235107;-0.441406;0.688356;-0.161304;-0.702842;-0.078490
28943;9.949908;0.944649;-0.894282;0.716291;0.007609;0.399088;-0.655762;0.237305;-0.451172;0.689568;-0.159630;-0.702725;-0.072058
28944;9.362792;0.920984;-1.061747;0.515747;0.063216;0.546659;-0.659912;0.233887;-0.459961;0.690939;-0.160010;-0.701877;-0.066088
28945;8.679785;0.861666;-1.257585;0.307660;0.159869;0.656462;-0.651611;0.239746;-0.466553;0.692642;-0.162086;-0.700201;-0.060784
28946;8.155221;0.664440;-1.363867;0.084095;0.281308;0.701209;-0.647217;0.241211;-0.467041;0.694772;-0.165687;-0.697583;-0.056728
28947;8.112420;0.233686;-1.362914;-0.233697;0.362394;0.726934;-0.646240;0.250732;-0.460449;0.696905;-0.171146;-0.694313;-0.054422
28948;8.802960;-0.596110;-1.519693;-0.566630;0.356282;0.743373;-0.633301;0.268311;-0.457275;0.698442;-0.178568;-0.690933;-0.053882
28949;9.671508;-1.649453;-1.600252;-0.802010;0.294653;0.701580;-0.636719;0.273438;-0.463867;0.699199;-0.187228;-0.687787;-0.054914
28950;10.404382;-2.750947;-1.357371;-0.855371;0.200524;0.644339;-0.633057;0.298096;-0.457520;0.699257;-0.195752;-0.685236;-0.056326
28951;11.058646;-3.492025;-1.274937;-0.657408;0.088816;0.530067;-0.631348;0.311279;-0.455322;0.698871;-0.202655;-0.683549;-0.057198
28952;11.529077;-3.643777;-1.188570;-0.315922;0.006330;0.356734;-0.626709;0.312988;-0.458740;0.698480;-0.206641;-0.682770;-0.057010
28953;11.620705;-3.416846;-1.033036;0.060118;-0.055039;0.193551;-0.625000;0.317627;-0.457031;0.698334;-0.207491;-0.682787;-0.055483
28954;11.501121;-2.906476;-0.810291;0.458383;-0.079585;0.112500;-0.622314;0.315430;-0.459717;0.698689;-0.205618;-0.683254;-0.052154
28955;11.062709;-2.060585;-0.640717;0.758371;-0.016141;0.126481;-0.630859;0.308350;-0.462158;0.699917;-0.202061;-0.683421;-0.047152
28956;10.486450;-0.935549;-0.677317;0.907410;0.058957;0.176518;-0.624756;0.307861;-0.478516;0.701780;-0.197786;-0.683154;-0.041059
28957;9.977979;0.218994;-0.950817;0.878807;0.151271;0.225937;-0.620361;0.297119;-0.473145;0.704153;-0.194023;-0.682124;-0.035080
28958;9.457425;1.012862;-1.287093;0.661450;0.237491;0.249215;-0.619873;0.305176;-0.475586;0.706601;-0.191543;-0.680522;-0.030268
28959;9.097865;1.014683;-1.407543;0.330643;0.290679;0.289711;-0.612793;0.298096;-0.484131;0.708788;-0.191353;-0.678423;-0.027312
28960;8.818651;0.459589;-1.357687;-0.000359;0.310916;0.337580;-0.615479;0.298096;-0.490479;0.710590;-0.193299;-0.676038;-0.025905
28961;8.647160;-0.272794;-1.363450;-0.237709;0.299981;0.356403;-0.609131;0.305664;-0.488770;0.711931;-0.196665;-0.673661;-0.025629
28962;8.624491;-0.841502;-1.474869;-0.397774;0.268296;0.322973;-0.606201;0.310547;-0.488770;0.712803;-0.200832;-0.671476;-0.026439
28963;8.665406;-1.172017;-1.560696;-0.472278;0.224362;0.234427;-0.596436;0.324463;-0.493408;0.713262;-0.204919;-0.669684;-0.028089
28964;8.804066;-1.474264;-1.537313;-0.518268;0.165923;0.137331;-0.598877;0.321045;-0.486328;0.713315;-0.208905;-0.668283;-0.030621
28965;8.863092;-1.746933;-1.427503;-0.530581;0.104660;0.075238;-0.593994;0.328613;-0.479492;0.712939;-0.212460;-0.667434;-0.033324
28966;8.929389;-1.943712;-1.370935;-0.489494;0.038918;0.015813;-0.601074;0.331299;-0.483398;0.712231;-0.215517;-0.667066;-0.036103
28967;9.003611;-1.993602;-1.287943;-0.390697;-0.018590;-0.048811;-0.594482;0.331299;-0.481445;0.711352;-0.217565;-0.667202;-0.038531
28968;9.099028;-1.952589;-1.289989;-0.249420;-0.057702;-0.112883;-0.587891;0.339844;-0.470215;0.710509;-0.218438;-0.667700;-0.040475
28969;9.120595;-1.655758;-1.335226;-0.110367;-0.078627;-0.180417;-0.598145;0.339844;-0.481689;0.709760;-0.218307;-0.668431;-0.042221
28970;9.153821;-1.121749;-1.424249;-0.021272;-0.085363;-0.261860;-0.603271;0.335693;-0.468018;0.709127;-0.217125;-0.669382;-0.043846
28971;9.218025;-0.449153;-1.553548;-0.023589;-0.095531;-0.333512;-0.604004;0.327393;-0.466797;0.708346;-0.215523;-0.670590;-0.045891
28972;9.256414;0.138288;-1.612937;-0.128464;-0.109770;-0.384940;-0.609619;0.323975;-0.476074;0.707275;-0.214184;-0.671947;-0.048719
28973;9.547402;0.438055;-1.668749;-0.306117;-0.143461;-0.406985;-0.607178;0.333740;-0.468750;0.705715;-0.213732;-0.673443;-0.052535
28974;10.072740;0.490337;-1.879414;-0.527472;-0.156067;-0.408058;-0.608887;0.330322;-0.456543;0.703663;-0.214823;-0.674805;-0.057862
28975;10.459206;0.377064;-1.852967;-0.760857;-0.115566;-0.391705;-0.614258;0.330322;-0.458984;0.701372;-0.217316;-0.675792;-0.064470
28976;10.652089;0.409322;-1.689155;-0.949151;-0.086753;-0.379223;-0.621582;0.329834;-0.451172;0.698889;-0.220880;-0.676446;-0.072017
28977;10.922582;0.279525;-1.689712;-1.081350;-0.083276;-0.408689;-0.620605;0.337891;-0.439941;0.696091;-0.224922;-0.677056;-0.080387
28978;11.284447;-0.029078;-1.787444;-1.106613;-0.053228;-0.486562;-0.620117;0.337646;-0.432373;0.693281;-0.228751;-0.677507;-0.089551
28979;11.859897;-0.677951;-2.034950;-1.086677;0.047285;-0.597244;-0.628174;0.343018;-0.432373;0.690928;-0.231707;-0.677535;-0.099384
28980;13.048821;-1.441161;-2.381875;-1.052111;0.186518;-0.749228;-0.635254;0.340088;-0.433350;0.689229;-0.233472;-0.676994;-0.110156
28981;14.921861;-2.104988;-2.585816;-0.957727;0.215077;-0.967057;-0.637207;0.340820;-0.429443;0.687605;-0.233302;-0.676752;-0.121559
28982;16.499875;-2.284688;-2.456455;-0.775956;0.127491;-1.083947;-0.645996;0.338867;-0.422119;0.685625;-0.231585;-0.677293;-0.132519
28983;16.758184;-1.427042;-1.541315;-0.547459;-0.005192;-0.971256;-0.653320;0.328613;-0.423584;0.683351;-0.229387;-0.678546;-0.141380
28984;14.898736;0.194771;-0.046681;-0.526119;-0.025538;-0.677088;-0.646973;0.328613;-0.417969;0.681327;-0.228629;-0.679369;-0.148259
28985;11.816880;1.044976;0.937487;-0.920617;0.102386;-0.399441;-0.650879;0.325684;-0.414307;0.679573;-0.231669;-0.678320;-0.156180
28986;8.750434;0.444169;1.514616;-1.501368;0.407849;-0.302421;-0.651855;0.333984;-0.405029;0.678476;-0.237997;-0.674568;-0.167291
28987;6.424441;-1.398219;1.877492;-1.843670;0.740935;-0.338954;-0.638184;0.349854;-0.397461;0.678331;-0.245566;-0.668370;-0.181232
28988;4.896460;-3.180006;2.088064;-1.824252;0.944187;-0.391091;-0.635986;0.350830;-0.395996;0.679039;-0.252602;-0.660827;-0.195972
28989;4.714099;-4.534077;1.746957;-1.483241;0.915342;-0.476174;-0.635254;0.353516;-0.399414;0.680001;-0.257048;-0.654086;-0.209037
28990;5.833153;-4.919916;1.134014;-0.876219;0.753389;-0.641021;-0.635498;0.357666;-0.415283;0.680994;-0.257302;-0.649597;-0.219241
28991;7.654528;-4.523381;0.490307;-0.032296;0.584796;-0.855674;-0.634033;0.343018;-0.396484;0.682474;-0.251909;-0.647961;-0.225649
28992;9.540449;-3.568577;0.035070;0.846118;0.441770;-1.033418;-0.646973;0.332275;-0.424561;0.684511;-0.240825;-0.649149;-0.228154
28993;10.873367;-2.021813;-0.345668;1.362820;0.295725;-1.122758;-0.646973;0.311035;-0.424805;0.686565;-0.226497;-0.652216;-0.227906
28994;11.046412;-0.128342;-0.312620;1.353523;0.150785;-1.080160;-0.650635;0.290527;-0.431396;0.687693;-0.212771;-0.655863;-0.227268
28995;10.206858;1.395460;0.295931;0.835901;-0.024041;-0.852341;-0.646973;0.266846;-0.446045;0.687261;-0.203581;-0.659028;-0.227836
28996;9.532725;1.852951;0.943715;0.081672;-0.186983;-0.556286;-0.655029;0.268311;-0.438965;0.685299;-0.200434;-0.661190;-0.230262
28997;9.206108;1.485710;0.910059;-0.636410;-0.199920;-0.289459;-0.660156;0.275391;-0.425537;0.682469;-0.203073;-0.661522;-0.235341
28998;9.019422;0.626175;0.654988;-1.015079;-0.052426;-0.071083;-0.659668;0.272461;-0.423340;0.680116;-0.208918;-0.659828;-0.241706
28999;8.653022;-0.376932;0.415655;-1.026106;0.098299;0.060947;-0.655518;0.280518;-0.425049;0.678875;-0.214960;-0.657075;-0.247333
29000;8.469273;-0.956919;0.355007;-0.737977;0.146419;0.130324;-0.656250;0.286621;-0.416504;0.678549;-0.219652;-0.654453;-0.251030
29001;8.494516;-1.167915;0.263842;-0.317345;0.142134;0.150248;-0.649170;0.295654;-0.421631;0.678961;-0.222061;-0.652711;-0.252329
29002;8.573556;-1.046338;0.245469;0.146549;0.102543;0.113266;-0.658936;0.292480;-0.421387;0.679931;-0.221894;-0.652131;-0.251359
29003;8.650383;-0.494285;0.521103;0.533888;0.043700;0.093970;-0.653809;0.294189;-0.423340;0.681259;-0.219354;-0.652842;-0.248126
29004;8.658716;0.272544;0.571040;0.777772;0.004732;0.112037;-0.657959;0.282715;-0.421875;0.682804;-0.215769;-0.654147;-0.243544
29005;8.468975;0.849456;0.508189;0.912099;-0.023554;0.185782;-0.651611;0.277832;-0.434082;0.684581;-0.211621;-0.655855;-0.237527
29006;8.331423;1.183710;0.492507;0.940665;-0.010505;0.293938;-0.639160;0.279053;-0.439697;0.686699;-0.207887;-0.657266;-0.230714
29007;8.231283;1.284019;0.474636;0.882793;0.044583;0.410009;-0.643555;0.280762;-0.446533;0.689178;-0.205247;-0.657875;-0.223848
29008;8.033009;1.222244;0.509659;0.822898;0.077275;0.515347;-0.643799;0.276123;-0.443848;0.691869;-0.203490;-0.657956;-0.216802
29009;7.828606;1.093513;0.518488;0.774730;0.098489;0.591393;-0.638184;0.279541;-0.447754;0.694685;-0.202222;-0.657750;-0.209484
29010;7.667911;0.927064;0.474368;0.712628;0.101182;0.632163;-0.640381;0.278076;-0.458252;0.697421;-0.201626;-0.657263;-0.202374
29011;7.664474;0.726020;0.457252;0.602852;0.041940;0.663100;-0.631348;0.279541;-0.456543;0.699705;-0.201765;-0.656905;-0.195396
29012;8.040520;0.422608;0.470205;0.410707;-0.062344;0.710087;-0.627441;0.286621;-0.455566;0.701129;-0.203471;-0.656719;-0.189046
29013;8.956085;-0.009507;0.516441;0.246760;-0.179713;0.744652;-0.628906;0.291016;-0.463379;0.701632;-0.206593;-0.656837;-0.183294
29014;10.389421;-0.477406;0.310274;0.243790;-0.308954;0.720593;-0.622070;0.292480;-0.459473;0.701399;-0.209696;-0.657737;-0.177343
29015;11.615590;-0.976262;0.200004;0.436901;-0.379733;0.658671;-0.623291;0.296143;-0.450928;0.701013;-0.211360;-0.659428;-0.170480
29016;12.369397;-1.131562;0.403955;0.779144;-0.392399;0.626126;-0.629150;0.295898;-0.450439;0.701040;-0.210827;-0.661729;-0.161895
29017;12.832696;-0.680539;0.617694;1.142510;-0.366033;0.604209;-0.637451;0.296143;-0.447754;0.701746;-0.207891;-0.664397;-0.151363
29018;13.637593;-0.255171;0.422521;1.372519;-0.342403;0.606712;-0.630127;0.290771;-0.456299;0.702837;-0.203541;-0.667165;-0.139574
29019;14.961704;-0.357656;-0.236479;1.237801;-0.279931;0.622104;-0.630127;0.285400;-0.467041;0.703990;-0.200031;-0.669221;-0.128565
29020;15.679011;-0.870369;-0.628740;0.794228;-0.189567;0.594671;-0.616699;0.293945;-0.463623;0.704842;-0.198768;-0.670253;-0.120204
29021;14.937814;-1.488787;-0.081323;0.259295;-0.208503;0.651393;-0.622803;0.293945;-0.452881;0.704684;-0.201409;-0.670554;-0.114944
29022;13.231186;-2.277274;0.968526;-0.111854;-0.195542;0.705398;-0.618652;0.297119;-0.455322;0.703968;-0.206255;-0.670460;-0.111221
29023;11.341938;-2.669912;1.696981;0.001751;-0.115382;0.651369;-0.616699;0.311035;-0.455811;0.703865;-0.209929;-0.670092;-0.107148
29024;9.715531;-2.397076;1.855086;0.391382;0.020628;0.531870;-0.611816;0.322510;-0.464355;0.705057;-0.210742;-0.669374;-0.102080
29025;8.468919;-1.810517;1.382484;0.741094;0.243633;0.414732;-0.604980;0.312012;-0.465820;0.707988;-0.208927;-0.667685;-0.096435
29026;7.901407;-0.945007;0.731909;0.911682;0.475766;0.303191;-0.601318;0.306396;-0.467041;0.712388;-0.205046;-0.665015;-0.090631
29027;7.909313;-0.117621;0.138766;0.798088;0.628924;0.218291;-0.595215;0.302979;-0.479004;0.717298;-0.201150;-0.661514;-0.086150
29028;8.159547;0.643571;-0.171214;0.317279;0.618686;0.191868;-0.594238;0.299805;-0.486816;0.721293;-0.200001;-0.657722;-0.084479
29029;8.777620;0.869175;-0.274815;-0.436748;0.414183;0.160976;-0.584473;0.301514;-0.488525;0.722867;-0.203188;-0.654735;-0.086599
29030;9.515774;0.662580;-0.453175;-1.309367;0.108840;0.097828;-0.583740;0.326660;-0.490967;0.721218;-0.211489;-0.652999;-0.093321
29031;9.979781;0.006033;-0.564354;-2.035286;-0.174293;-0.039865;-0.583496;0.331055;-0.477539;0.716477;-0.223980;-0.652315;-0.104779
29032;10.180638;-0.611412;-0.631570;-2.445120;-0.371914;-0.223739;-0.593018;0.347656;-0.441406;0.709518;-0.237662;-0.652692;-0.118719
29033;10.134673;-1.318100;-0.504736;-2.480276;-0.407245;-0.466588;-0.594971;0.358887;-0.442627;0.701656;-0.250135;-0.653522;-0.134242
29034;9.744531;-1.833300;-0.173232;-2.200152;-0.327766;-0.718189;-0.602539;0.378174;-0.415771;0.694348;-0.259295;-0.654424;-0.149586
29035;9.062283;-1.818716;0.105098;-1.774988;-0.254675;-0.918394;-0.599365;0.378662;-0.401855;0.687762;-0.265141;-0.655478;-0.164417
29036;8.386220;-1.303905;0.194386;-1.459184;-0.224690;-1.006703;-0.605225;0.376221;-0.394531;0.681747;-0.268670;-0.656749;-0.178098
29037;7.919734;-0.615165;0.159294;-1.272000;-0.247570;-1.010263;-0.631592;0.374023;-0.390381;0.675914;-0.271001;-0.658325;-0.190543
29038;7.615320;-0.137860;-0.069564;-1.194667;-0.264329;-0.973763;-0.634277;0.373047;-0.370361;0.670150;-0.272710;-0.660119;-0.201920
29039;7.458472;-0.058837;-0.335981;-1.202819;-0.216156;-0.936400;-0.633301;0.362793;-0.360107;0.664498;-0.274777;-0.661330;-0.213500
29040;7.304309;-0.291257;-0.534834;-1.230505;-0.151431;-0.917531;-0.650879;0.383057;-0.354980;0.659119;-0.276790;-0.662041;-0.225059
29041;7.240644;-0.650446;-0.667004;-1.128443;-0.089436;-0.925343;-0.651855;0.372559;-0.341064;0.654033;-0.278621;-0.662219;-0.236806
29042;7.349182;-0.993061;-0.862813;-0.916188;-0.071579;-0.987637;-0.656982;0.356934;-0.345215;0.649331;-0.278746;-0.662844;-0.247603
29043;7.675807;-1.275038;-1.114137;-0.542229;-0.077235;-1.098591;-0.660889;0.347656;-0.325928;0.645350;-0.275734;-0.664669;-0.256338
29044;7.984447;-1.170955;-1.634552;-0.099661;-0.086439;-1.244344;-0.670410;0.336426;-0.335938;0.641830;-0.269712;-0.667692;-0.263623
29045;8.221242;-0.922559;-2.056295;0.242119;-0.064221;-1.377344;-0.673584;0.331543;-0.328369;0.638908;-0.260961;-0.671581;-0.269582
29046;8.410158;-0.430741;-2.137863;0.513587;-0.084377;-1.423019;-0.686523;0.304199;-0.315674;0.636058;-0.251103;-0.675937;-0.274748
29047;8.754408;0.267230;-2.265344;0.627103;-0.157999;-1.368156;-0.673584;0.284180;-0.331299;0.633057;-0.240778;-0.680921;-0.278588
29048;9.568298;1.032844;-2.125129;0.559793;-0.247323;-1.264042;-0.700195;0.263184;-0.332764;0.629694;-0.231590;-0.685848;-0.281893
29049;10.644242;1.966200;-1.835946;0.350994;-0.288219;-1.078021;-0.704346;0.248047;-0.337646;0.626123;-0.224274;-0.690240;-0.285026
29050;11.834350;3.012632;-1.324431;0.032594;-0.319452;-0.783396;-0.701172;0.244629;-0.332031;0.622482;-0.220337;-0.693432;-0.288307
29051;12.863704;2.491646;-0.663537;-0.229828;-0.339912;-0.552518;-0.708740;0.234131;-0.326904;0.618686;-0.219426;-0.695527;-0.292098
29052;13.236645;1.381926;-0.309341;-0.146671;-0.229822;-0.460712;-0.717285;0.232178;-0.325928;0.615949;-0.218115;-0.697166;-0.294943
29053;13.000968;0.191014;-0.154289;0.258737;-0.039694;-0.433292;-0.710205;0.226807;-0.318604;0.615088;-0.214465;-0.698744;-0.295682
29054;13.376022;-1.056956;-0.208133;0.768175;0.149728;-0.438837;-0.717529;0.224121;-0.319092;0.616157;-0.207811;-0.700559;-0.293910
29055;14.662415;-1.382956;-0.410726;1.289904;0.387458;-0.570342;-0.714600;0.207031;-0.334961;0.619052;-0.197283;-0.702551;-0.290303
29056;15.163739;-0.182464;-0.943598;2.059485;0.554687;-0.812592;-0.714111;0.182617;-0.342285;0.623534;-0.180769;-0.705804;-0.283495
29057;13.782399;2.287970;0.454387;2.383168;0.579124;-0.668519;-0.714844;0.157471;-0.359619;0.628753;-0.163180;-0.709251;-0.273870
29058;11.058484;4.271795;2.513899;1.777270;0.560870;-0.269472;-0.707031;0.157959;-0.368408;0.633775;-0.151002;-0.710649;-0.265527
29059;9.203835;3.268115;2.411537;0.923535;0.397954;0.110947;-0.709717;0.148438;-0.382080;0.637388;-0.146354;-0.710312;-0.260333
29060;8.532308;0.526364;1.732901;0.150773;0.423573;0.273437;-0.700684;0.157959;-0.385254;0.640594;-0.146537;-0.707967;-0.258745
29061;8.361332;-1.665107;1.921660;-0.353491;0.587404;0.172439;-0.705322;0.152588;-0.393311;0.643872;-0.148638;-0.703711;-0.261011
29062;9.063267;-2.707669;2.281027;-0.293315;0.528940;0.154136;-0.698975;0.160400;-0.397949;0.646892;-0.150126;-0.699989;-0.262696
29063;10.389951;-2.415282;1.656074;0.433009;0.405926;0.215419;-0.692383;0.158936;-0.397949;0.650198;-0.148417;-0.698396;-0.259726
29064;11.733928;-1.543252;0.374173;1.297479;0.390738;0.280164;-0.688965;0.142090;-0.401855;0.654592;-0.142348;-0.698653;-0.251256
29065;12.278718;-0.245910;-0.455831;1.810602;0.486863;0.394911;-0.678467;0.143555;-0.418945;0.660347;-0.133603;-0.699280;-0.238954
29066;11.379915;0.759874;-0.299176;1.808488;0.588021;0.502725;-0.675293;0.138428;-0.427979;0.666680;-0.125567;-0.698939;-0.226395
29067;10.018320;1.342940;-0.168047;1.575616;0.553460;0.654110;-0.668457;0.118408;-0.434326;0.672682;-0.119757;-0.698031;-0.214266
29068;8.772198;1.471760;-0.360427;1.317903;0.532197;0.784524;-0.667725;0.145996;-0.440430;0.678475;-0.115795;-0.696597;-0.202522
29069;7.656935;1.343908;-0.517212;1.080098;0.523262;0.903423;-0.660400;0.131104;-0.447998;0.683943;-0.114430;-0.694479;-0.191904
29070;7.069202;1.061513;-0.622168;0.895580;0.475047;1.013682;-0.651611;0.144531;-0.461670;0.689104;-0.114460;-0.692203;-0.181356
29071;6.873296;0.903264;-0.746140;0.793564;0.443923;1.058021;-0.648438;0.138672;-0.466553;0.693938;-0.115579;-0.689744;-0.171302
29072;7.006328;0.913729;-0.747534;0.840888;0.399689;1.070229;-0.644043;0.146729;-0.477051;0.698518;-0.116317;-0.687560;-0.160637
29073;7.243776;1.153297;-0.775239;0.972750;0.372572;1.056661;-0.636475;0.148926;-0.479980;0.702941;-0.116307;-0.685600;-0.149326
29074;7.334027;1.283504;-0.488895;1.132921;0.330585;1.017347;-0.629395;0.154053;-0.491455;0.707120;-0.115137;-0.684027;-0.137231
29075;7.536288;1.562443;-0.149616;1.286528;0.245797;1.029260;-0.621338;0.160156;-0.491943;0.710849;-0.113288;-0.682962;-0.124184
29076;7.821706;1.987964;-0.122551;1.327394;0.176082;1.026171;-0.628174;0.162354;-0.490234;0.714071;-0.111283;-0.682221;-0.110871
29077;7.946942;2.253894;-0.046971;1.250198;0.142840;0.975616;-0.615479;0.157227;-0.505371;0.716836;-0.109395;-0.681578;-0.098139
29078;8.117580;2.256376;0.096501;1.111319;0.133437;0.935342;-0.615479;0.152588;-0.508545;0.719302;-0.108131;-0.680755;-0.086517
29079;8.308812;2.177816;0.105875;0.937542;0.143748;0.903620;-0.600342;0.156494;-0.510254;0.721553;-0.107626;-0.679709;-0.075989
29080;8.453437;2.021518;0.193592;0.717634;0.208985;0.860846;-0.611816;0.156982;-0.513428;0.723883;-0.108212;-0.678071;-0.067103
29081;8.449625;1.778160;0.457132;0.467638;0.280929;0.828745;-0.595947;0.164062;-0.517822;0.726302;-0.109984;-0.675884;-0.059755
29082;8.514951;1.270296;0.722681;0.153415;0.292107;0.846479;-0.601074;0.176758;-0.521729;0.728472;-0.113823;-0.673377;-0.054192
29083;9.023212;0.476082;0.777259;-0.135021;0.195624;0.839587;-0.588379;0.178223;-0.520996;0.729770;-0.119423;-0.671309;-0.050186
29084;10.139998;-0.645474;0.684666;-0.366416;0.034896;0.777694;-0.587402;0.190430;-0.521240;0.729888;-0.126090;-0.670145;-0.047655
29085;11.392587;-1.696607;0.721019;-0.380197;-0.058082;0.585141;-0.590820;0.204102;-0.514404;0.729362;-0.131809;-0.669713;-0.046283
29086;12.263081;-1.922117;0.648758;-0.101921;-0.115663;0.366773;-0.585938;0.202881;-0.519775;0.728705;-0.134634;-0.669981;-0.044589
29087;12.858387;-1.410837;0.531112;0.329670;-0.223205;0.206777;-0.587158;0.209717;-0.523682;0.727882;-0.133981;-0.671212;-0.041366
29088;14.031791;-0.947003;-0.106818;0.578828;-0.394843;0.100538;-0.593506;0.203369;-0.512451;0.726329;-0.131365;-0.673645;-0.037308
29089;14.895218;-0.903685;-0.639512;0.537692;-0.458709;-0.064295;-0.589600;0.192871;-0.512451;0.724278;-0.128010;-0.676653;-0.034288
29090;14.277129;0.075085;-0.923665;0.060895;-0.548296;-0.094870;-0.601318;0.191162;-0.509277;0.721201;-0.127384;-0.680059;-0.034075
29091;12.528973;0.836865;-0.292195;-0.807755;-0.691568;-0.052774;-0.602295;0.203857;-0.501709;0.716359;-0.132230;-0.684014;-0.038347
29092;10.519967;0.981362;0.164209;-1.524495;-0.726968;-0.075555;-0.609131;0.218994;-0.479492;0.710424;-0.141305;-0.687845;-0.046911
29093;8.906640;0.473556;0.422305;-1.799662;-0.643821;-0.125109;-0.615967;0.221191;-0.466797;0.704441;-0.151644;-0.690995;-0.057392
29094;8.263796;-0.225910;0.434055;-1.750207;-0.437645;-0.214465;-0.617920;0.238037;-0.468994;0.699495;-0.160942;-0.692926;-0.068253
29095;8.549481;-0.611787;-0.022314;-1.607120;-0.147565;-0.363633;-0.616455;0.257568;-0.459961;0.696202;-0.168460;-0.693235;-0.079690
29096;9.187351;-0.500962;-0.500170;-1.636696;0.061172;-0.533505;-0.625977;0.260742;-0.457031;0.693811;-0.175104;-0.692370;-0.092676
29097;10.088930;-0.026559;-0.906654;-2.058158;0.095269;-0.699772;-0.624023;0.261719;-0.442383;0.690676;-0.183096;-0.691057;-0.109012
29098;11.438785;0.523646;-1.274807;-2.806148;-0.040702;-0.849714;-0.627441;0.281250;-0.428955;0.685154;-0.194485;-0.689780;-0.130161
29099;12.786092;0.666047;-1.609852;-3.465365;-0.251471;-0.961476;-0.636719;0.286377;-0.409912;0.676699;-0.209152;-0.688617;-0.155371
29100;13.223516;0.073141;-1.670577;-3.755536;-0.369624;-1.067351;-0.637939;0.313965;-0.388672;0.666257;-0.224688;-0.687283;-0.182369
29101;12.628314;-1.048002;-1.328389;-3.600898;-0.329492;-1.248459;-0.653320;0.315430;-0.358643;0.655337;-0.238205;-0.685485;-0.209530
29102;11.482850;-2.052508;-0.848845;-3.061438;-0.233551;-1.393849;-0.659912;0.322021;-0.340332;0.645176;-0.247424;-0.683854;-0.234249
29103;10.080264;-2.400476;-0.464055;-2.215952;-0.125328;-1.487604;-0.661621;0.314209;-0.326904;0.636763;-0.251244;-0.683013;-0.254761
29104;8.799767;-1.991830;-0.314992;-1.383469;-0.049763;-1.539784;-0.676270;0.315918;-0.325928;0.630169;-0.250058;-0.683377;-0.270838
29105;7.918004;-1.104194;-0.479970;-0.792755;-0.008930;-1.544011;-0.683350;0.289551;-0.319092;0.624843;-0.245703;-0.684639;-0.283672
29106;7.285880;-0.314868;-0.628873;-0.489321;0.076528;-1.502076;-0.696289;0.287354;-0.328369;0.620634;-0.239593;-0.686040;-0.294547
29107;6.859587;0.193518;-0.714773;-0.381033;0.107627;-1.410039;-0.689697;0.272461;-0.313965;0.616919;-0.233471;-0.687177;-0.304451
29108;6.695345;0.494107;-0.743398;-0.380464;0.074129;-1.334162;-0.700195;0.259277;-0.323242;0.613115;-0.227804;-0.688277;-0.313799
29109;6.598670;0.616398;-0.835897;-0.457592;0.079152;-1.273992;-0.703613;0.243408;-0.310547;0.609273;-0.222835;-0.688934;-0.323267
29110;6.600660;0.498347;-0.851624;-0.485877;0.062891;-1.258008;-0.712646;0.231689;-0.312744;0.605254;-0.218040;-0.689535;-0.332666
29111;6.780146;0.359476;-1.072668;-0.484246;0.027148;-1.268472;-0.719971;0.215088;-0.313721;0.600924;-0.213250;-0.690251;-0.342007
29112;7.122673;0.057063;-1.292361;-0.394203;0.009773;-1.301530;-0.726562;0.215332;-0.304443;0.596492;-0.207804;-0.691291;-0.350901
29113;7.511078;-0.057923;-1.556552;-0.235110;-0.004417;-1.351190;-0.729980;0.193604;-0.305176;0.592001;-0.201379;-0.692855;-0.359072
29114;7.882735;0.132064;-1.812044;-0.064594;-0.008460;-1.392836;-0.733643;0.184814;-0.310059;0.587589;-0.193799;-0.694944;-0.366378
29115;8.289808;0.374966;-1.909562;0.160068;-0.026277;-1.383413;-0.734375;0.153320;-0.311768;0.583382;-0.185254;-0.697674;-0.372286
29116;8.893553;0.826430;-1.831523;0.380622;-0.071287;-1.285932;-0.731689;0.144043;-0.310303;0.579507;-0.176222;-0.701093;-0.376279
29117;9.883544;1.445910;-1.792879;0.547824;-0.131445;-1.126052;-0.742432;0.134033;-0.308105;0.575957;-0.167528;-0.705001;-0.378394
29118;11.116599;2.331785;-1.701615;0.642735;-0.145124;-0.936764;-0.744873;0.116455;-0.307861;0.572990;-0.159541;-0.708947;-0.378976
29119;12.148427;3.136089;-1.351715;0.633666;-0.144725;-0.696396;-0.753662;0.100098;-0.312988;0.570736;-0.152978;-0.712498;-0.378425
29120;12.680002;3.089022;-0.791018;0.672984;-0.102949;-0.408439;-0.744873;0.093262;-0.311279;0.569659;-0.147782;-0.715569;-0.376312
29121;12.744539;2.918658;-0.135060;0.923577;0.007392;-0.044003;-0.744385;0.093018;-0.304688;0.570672;-0.143213;-0.718415;-0.371084
29122;13.496623;2.558627;-0.113109;1.152422;0.161195;0.265611;-0.742432;0.086670;-0.312744;0.573793;-0.138923;-0.720829;-0.363136
29123;14.071342;2.429624;-0.651282;1.395379;0.442510;0.383486;-0.748047;0.088135;-0.323242;0.579171;-0.133302;-0.722397;-0.353460
29124;13.758141;2.745336;-0.763525;1.796193;0.711621;0.351887;-0.740234;0.084229;-0.333496;0.586399;-0.124747;-0.723730;-0.341744
29125;12.987869;3.153450;-0.473164;2.273449;0.740313;0.433594;-0.731689;0.071533;-0.341064;0.594335;-0.114227;-0.725956;-0.326658
29126;11.978226;3.782984;0.218237;2.389405;0.704313;0.745653;-0.728760;0.069824;-0.357178;0.602755;-0.105048;-0.728068;-0.309141
29127;10.135085;4.393223;0.906643;2.049121;0.811434;1.044600;-0.722168;0.069580;-0.362061;0.612034;-0.099083;-0.728177;-0.292156
29128;8.350346;4.090552;1.576210;1.409241;0.863429;1.209691;-0.715820;0.076172;-0.381836;0.621284;-0.097214;-0.726081;-0.278138
29129;7.470104;2.427934;1.640367;0.670439;0.815130;1.222687;-0.710693;0.089111;-0.384277;0.629530;-0.099349;-0.722327;-0.268449
29130;7.324700;0.802030;1.287939;0.000675;0.774266;1.148327;-0.708740;0.104980;-0.400635;0.636707;-0.104623;-0.717249;-0.263082
29131;7.994424;0.048042;0.780845;-0.281839;0.692925;1.108650;-0.696777;0.113770;-0.405029;0.642983;-0.111330;-0.711916;-0.259526
29132;9.719187;-0.430821;0.205811;-0.108655;0.506765;1.184379;-0.690674;0.136719;-0.413818;0.648402;-0.117936;-0.707800;-0.254332
29133;11.124481;-0.370299;-0.328562;0.372614;0.392097;1.265406;-0.683838;0.144775;-0.413818;0.653713;-0.122661;-0.705151;-0.245715
29134;11.568094;-0.407503;-0.295832;0.933646;0.360619;1.254329;-0.688477;0.148926;-0.426270;0.659287;-0.124299;-0.703733;-0.233777
29135;11.340754;0.107097;-0.307887;1.320712;0.357235;1.228258;-0.689697;0.156250;-0.429688;0.665055;-0.123632;-0.702971;-0.219658
29136;10.646057;0.770669;-0.163143;1.435681;0.412566;1.175996;-0.674316;0.163818;-0.444580;0.671007;-0.121890;-0.702004;-0.205141
29137;9.664111;1.375292;-0.216124;1.262106;0.457997;1.137616;-0.662109;0.163086;-0.440674;0.676833;-0.120800;-0.700350;-0.191872
29138;8.794231;1.468598;-0.095494;0.934847;0.450262;1.154944;-0.654053;0.171875;-0.450928;0.682180;-0.121639;-0.698073;-0.180357
29139;8.284883;1.143436;-0.053673;0.586796;0.382119;1.211402;-0.654785;0.170654;-0.459961;0.686760;-0.124875;-0.695493;-0.170460
29140;8.122050;0.739515;-0.094460;0.367539;0.320218;1.254191;-0.648438;0.185791;-0.468506;0.690723;-0.129671;-0.692824;-0.161499
29141;8.121346;0.343116;-0.036266;0.309619;0.299427;1.219052;-0.632080;0.201416;-0.471191;0.694374;-0.134617;-0.690146;-0.153039
29142;8.215894;0.006675;0.063356;0.447600;0.307788;1.134758;-0.635742;0.211914;-0.481934;0.698044;-0.138263;-0.687606;-0.144275
29143;8.361845;0.045597;0.071992;0.713598;0.304808;1.041073;-0.625977;0.211182;-0.480957;0.701811;-0.139810;-0.685436;-0.134508
29144;8.466561;0.307621;-0.025882;1.025738;0.309497;0.941910;-0.623291;0.213135;-0.486328;0.705764;-0.138937;-0.683621;-0.123518
29145;8.510270;0.728440;-0.165667;1.297820;0.315831;0.851286;-0.621582;0.212891;-0.494385;0.709862;-0.135919;-0.682049;-0.111497
29146;8.438923;1.194988;-0.290554;1.504641;0.311563;0.761280;-0.617920;0.194824;-0.505127;0.713952;-0.131146;-0.680669;-0.098808
29147;8.339569;1.698984;-0.397235;1.601309;0.312555;0.703438;-0.606689;0.197510;-0.515137;0.717956;-0.125419;-0.679289;-0.085880
29148;8.260899;2.286170;-0.379700;1.632022;0.310897;0.659593;-0.612305;0.198730;-0.518799;0.721798;-0.119253;-0.677827;-0.073048
29149;8.286820;2.932343;-0.462754;1.494528;0.341920;0.620524;-0.600830;0.192139;-0.531250;0.725498;-0.113667;-0.676004;-0.061252
29150;8.095384;3.380626;-0.416577;1.086230;0.443907;0.581077;-0.595215;0.177979;-0.530762;0.729262;-0.110261;-0.673279;-0.052103
29151;7.819736;3.178094;-0.133261;0.431016;0.470153;0.563193;-0.583984;0.184570;-0.541016;0.732497;-0.110694;-0.670083;-0.046738
29152;8.006431;2.091780;0.166434;-0.228949;0.273190;0.535322;-0.580566;0.190430;-0.546387;0.733991;-0.115087;-0.667817;-0.045083
29153;8.916431;0.687961;0.004788;-0.681261;-0.014238;0.401820;-0.581543;0.201904;-0.535400;0.733377;-0.121602;-0.667241;-0.046488
29154;10.146753;-0.651432;-0.237103;-0.830322;-0.242172;0.161156;-0.585693;0.209229;-0.534180;0.731204;-0.127779;-0.668219;-0.049957
29155;11.180638;-1.165175;-0.402125;-0.585290;-0.391897;-0.075939;-0.589600;0.214111;-0.532227;0.728329;-0.131189;-0.670434;-0.053336
29156;12.164287;-0.712228;-0.564390;-0.206306;-0.545875;-0.266852;-0.590820;0.224365;-0.524658;0.724902;-0.131295;-0.673935;-0.055590
29157;13.397234;0.231497;-1.087032;-0.155594;-0.725743;-0.393647;-0.601562;0.220947;-0.509766;0.720436;-0.130507;-0.678642;-0.058183
29158;14.421048;0.771586;-1.038833;-0.694491;-0.929815;-0.395580;-0.612305;0.215576;-0.495605;0.714161;-0.133028;-0.684276;-0.063594
29159;14.600799;0.757330;-0.974034;-1.586930;-1.166621;-0.335994;-0.627197;0.225830;-0.483398;0.705436;-0.141267;-0.690661;-0.073425
29160;13.795886;0.604249;-0.683752;-2.361605;-1.251950;-0.311602;-0.631592;0.245361;-0.466797;0.695048;-0.154193;-0.696769;-0.087446
29161;12.355760;0.335559;-0.085979;-2.777318;-1.061106;-0.390595;-0.648193;0.265869;-0.449219;0.684794;-0.168871;-0.701144;-0.104580
29162;10.750189;0.067355;0.305144;-2.794000;-0.742952;-0.452070;-0.648682;0.289551;-0.421387;0.675900;-0.182909;-0.703338;-0.122552
29163;9.715695;-0.176721;0.377367;-2.581038;-0.428482;-0.448158;-0.655518;0.288818;-0.403564;0.668798;-0.195407;-0.703566;-0.139713
29164;9.440928;-0.183417;-0.061535;-2.402275;-0.128698;-0.471965;-0.664551;0.304443;-0.393555;0.663410;-0.206254;-0.702077;-0.156312
29165;9.606758;-0.087937;-0.786784;-2.376652;0.141322;-0.545001;-0.658447;0.319580;-0.378906;0.659269;-0.216108;-0.698951;-0.173576
29166;10.116400;-0.372750;-1.288978;-2.486457;0.337072;-0.679683;-0.668701;0.328857;-0.371338;0.655578;-0.225442;-0.694498;-0.192525
29167;10.821673;-0.406424;-1.674375;-2.570000;0.452723;-0.864988;-0.670166;0.335693;-0.357910;0.651764;-0.233846;-0.689289;-0.213073
29168;11.364205;-0.498806;-1.863968;-2.717988;0.440142;-1.086846;-0.678711;0.333008;-0.354736;0.646814;-0.241667;-0.683928;-0.235523
29169;11.673473;-0.972367;-1.989991;-2.758609;0.298633;-1.340543;-0.678467;0.331055;-0.333008;0.640076;-0.248333;-0.679337;-0.259104
29170;11.593649;-1.529069;-1.769574;-2.489358;0.109524;-1.595049;-0.687012;0.334473;-0.319092;0.631856;-0.252374;-0.676437;-0.281954
29171;11.099403;-1.804082;-1.393192;-1.995065;-0.046076;-1.805775;-0.691406;0.319824;-0.313721;0.622945;-0.252883;-0.675568;-0.302652
29172;10.431455;-1.710342;-1.009607;-1.337138;-0.175523;-1.935197;-0.710693;0.318604;-0.302979;0.614106;-0.249435;-0.676998;-0.319890
29173;9.648716;-1.125967;-0.894620;-0.699896;-0.245341;-1.970954;-0.729248;0.284912;-0.300049;0.605875;-0.242668;-0.680315;-0.333466
29174;8.881364;-0.528205;-0.706418;-0.189742;-0.267428;-1.929551;-0.726562;0.268311;-0.292725;0.598497;-0.233487;-0.684910;-0.343780
29175;8.180931;0.303274;-0.578578;0.014291;-0.273696;-1.804582;-0.745605;0.242432;-0.291016;0.591696;-0.223987;-0.689695;-0.352203
29176;7.714527;0.992579;-0.442723;-0.066880;-0.301774;-1.621313;-0.745117;0.224121;-0.285400;0.584992;-0.215959;-0.693903;-0.360061
29177;7.443936;1.406981;-0.424728;-0.306002;-0.327037;-1.391185;-0.754883;0.216309;-0.276611;0.578309;-0.210473;-0.696983;-0.368069
29178;7.401861;1.364954;-0.463041;-0.521378;-0.298323;-1.187972;-0.762207;0.194824;-0.277832;0.571955;-0.207103;-0.698814;-0.376343
29179;7.486354;1.023695;-0.574431;-0.629280;-0.233381;-1.044590;-0.767334;0.191162;-0.279053;0.566182;-0.204832;-0.699668;-0.384639
29180;7.448220;0.831584;-0.667394;-0.661376;-0.102072;-0.963935;-0.764160;0.175781;-0.267090;0.561328;-0.202748;-0.699584;-0.392920
29181;7.388652;0.623671;-0.722902;-0.624730;-0.000775;-0.952767;-0.774170;0.165527;-0.264160;0.557103;-0.200201;-0.699072;-0.401067
29182;7.551053;0.465026;-0.965062;-0.465764;0.045178;-0.940699;-0.772949;0.152832;-0.264893;0.553401;-0.196815;-0.698803;-0.408272
29183;7.903533;0.454012;-1.292272;-0.261459;0.054987;-0.907061;-0.776855;0.154053;-0.273438;0.550171;-0.192631;-0.699079;-0.414118
29184;8.207484;0.562310;-1.547022;-0.023079;0.069433;-0.854120;-0.779297;0.132812;-0.268799;0.547574;-0.187612;-0.699981;-0.418319
29185;8.426067;0.780996;-1.625966;0.219596;0.090510;-0.753983;-0.781250;0.125488;-0.258789;0.545793;-0.181975;-0.701453;-0.420665
29186;8.639947;1.165699;-1.627852;0.416371;0.107095;-0.604687;-0.787354;0.121582;-0.264893;0.544905;-0.176256;-0.703303;-0.421162
29187;9.106919;1.774832;-1.458763;0.533321;0.081109;-0.406797;-0.782959;0.108154;-0.275391;0.544723;-0.171252;-0.705365;-0.420012
29188;10.044877;2.153329;-1.359237;0.537053;0.056786;-0.215195;-0.789551;0.111816;-0.272705;0.545063;-0.167430;-0.707245;-0.417945
29189;11.091830;2.178040;-1.281279;0.584639;0.114576;-0.045527;-0.786865;0.114014;-0.270996;0.546393;-0.164191;-0.708788;-0.414868
29190;11.777802;2.349522;-1.129010;0.777419;0.213277;0.162958;-0.779785;0.101318;-0.279297;0.549275;-0.160959;-0.710242;-0.409812
29191;11.815266;2.588450;-0.687801;1.032002;0.350560;0.415995;-0.781006;0.100098;-0.287598;0.554132;-0.157571;-0.711539;-0.402270
29192;11.515178;2.592325;-0.141222;1.132816;0.494051;0.664912;-0.782715;0.098389;-0.301514;0.560744;-0.154695;-0.712104;-0.393121
29193;12.157687;1.928653;-0.398467;1.212634;0.551276;0.679669;-0.770508;0.105225;-0.302246;0.567764;-0.151323;-0.712538;-0.383451
29194;13.783545;1.454889;-1.274210;1.599161;0.513586;0.612302;-0.775146;0.102295;-0.308105;0.574730;-0.145816;-0.714344;-0.371665
29195;14.772013;1.941517;-1.545010;2.333495;0.482897;0.672446;-0.772461;0.108398;-0.324707;0.582405;-0.137198;-0.718275;-0.355053
29196;13.788815;3.171594;-0.936415;3.027915;0.542875;0.934962;-0.771240;0.099121;-0.342041;0.591688;-0.126527;-0.723255;-0.332863
29197;11.308596;4.157346;0.508849;3.366136;0.613288;1.231415;-0.759766;0.095703;-0.341553;0.602090;-0.115673;-0.727919;-0.306986
29198;9.079899;4.335191;1.587872;3.150715;0.669153;1.365671;-0.751709;0.093994;-0.367188;0.612428;-0.106476;-0.730988;-0.281516
29199;7.840589;3.243564;1.598485;2.561708;0.803281;1.383647;-0.747559;0.090576;-0.366455;0.622659;-0.099999;-0.731416;-0.259473
29200;6.939638;1.812462;1.008442;1.875211;1.044940;1.168850;-0.739258;0.099609;-0.389404;0.632984;-0.095204;-0.728916;-0.242792
29201;6.586129;0.977871;0.745357;1.119473;1.144213;0.908406;-0.724365;0.097900;-0.403320;0.642591;-0.092586;-0.724324;-0.232076
29202;7.987238;0.475752;0.327814;0.677944;0.872599;0.933934;-0.726562;0.108887;-0.415039;0.650145;-0.092992;-0.720172;-0.223641
29203;10.399925;0.115493;-0.361875;0.567406;0.616980;1.074811;-0.718750;0.115967;-0.422852;0.656250;-0.095310;-0.716996;-0.214868
29204;11.991079;-0.213667;-0.593322;0.765124;0.593170;1.064759;-0.705078;0.116455;-0.437988;0.662263;-0.096515;-0.714213;-0.204918
29205;12.392604;-0.263575;-0.455425;1.238409;0.584835;1.001723;-0.707275;0.126953;-0.439941;0.668391;-0.094723;-0.712206;-0.192465
29206;11.882587;0.259109;-0.263429;1.673722;0.529910;0.989604;-0.693604;0.131348;-0.455322;0.674351;-0.090509;-0.711051;-0.177384
29207;11.008210;0.945728;-0.070411;1.897560;0.489176;0.974799;-0.693848;0.128418;-0.465820;0.680017;-0.084984;-0.710239;-0.160979
29208;9.951616;1.423502;0.015199;1.916199;0.489662;0.915088;-0.689453;0.121582;-0.474365;0.685393;-0.078972;-0.709259;-0.144747
29209;9.104520;1.662111;-0.014687;1.739484;0.457980;0.903787;-0.677002;0.107178;-0.479004;0.690240;-0.073915;-0.708040;-0.129559
29210;8.726763;1.710612;-0.098900;1.437629;0.419197;0.890732;-0.678467;0.112305;-0.474121;0.694488;-0.070529;-0.706551;-0.116178
29211;8.653861;1.726710;-0.070016;1.159889;0.393192;0.840870;-0.671631;0.108887;-0.495850;0.698233;-0.068486;-0.704858;-0.104672
29212;8.761357;1.561619;0.022554;0.990067;0.386305;0.757996;-0.667480;0.113037;-0.495605;0.701687;-0.066930;-0.702992;-0.094647
29213;8.872825;1.417927;0.144964;0.951875;0.398803;0.661680;-0.662598;0.106934;-0.503174;0.705034;-0.065025;-0.701003;-0.085404
29214;8.912078;1.259546;0.167628;1.038452;0.418758;0.571735;-0.666504;0.104248;-0.514648;0.708407;-0.062057;-0.698931;-0.076188
29215;8.784034;1.186452;0.142147;1.157195;0.439192;0.489392;-0.659912;0.104492;-0.516602;0.711824;-0.057886;-0.696777;-0.066770
29216;8.494219;1.225870;0.185155;1.271674;0.433560;0.416815;-0.649170;0.105957;-0.521240;0.715129;-0.052624;-0.694666;-0.057109
29217;8.238724;1.299748;0.181404;1.334808;0.391239;0.361111;-0.653809;0.087402;-0.520508;0.718094;-0.046693;-0.692758;-0.047404
29218;7.928582;1.263142;0.201849;1.381677;0.349734;0.316407;-0.647705;0.082764;-0.535400;0.720703;-0.040210;-0.691052;-0.037648
29219;7.587967;1.382221;0.276450;1.411948;0.288068;0.260645;-0.648193;0.067139;-0.539062;0.722857;-0.033246;-0.689627;-0.028052
29220;7.363466;1.522705;0.418715;1.418622;0.220167;0.217054;-0.637939;0.056152;-0.532959;0.724503;-0.025989;-0.688529;-0.018649
29221;7.290786;1.672371;0.538654;1.326507;0.138826;0.186436;-0.641113;0.050781;-0.542725;0.725558;-0.019124;-0.687823;-0.009942
29222;7.414677;1.564380;0.569155;1.196858;0.059348;0.107316;-0.638916;0.044189;-0.547363;0.726055;-0.012606;-0.687517;-0.002461
29223;7.878038;1.232257;0.606287;1.127504;-0.047560;0.002058;-0.639648;0.030273;-0.554688;0.725868;-0.005914;-0.687797;0.003979
29224;8.638495;1.086477;0.626773;1.061918;-0.216291;-0.065837;-0.641602;0.025879;-0.548340;0.724661;0.000788;-0.689038;0.009629
29225;9.317324;1.047994;0.598798;1.004006;-0.431121;-0.114544;-0.640381;0.006592;-0.543457;0.722161;0.007418;-0.691530;0.014646
29226;10.006827;1.067177;0.527679;1.005895;-0.632044;-0.168176;-0.652588;-0.004395;-0.535156;0.718448;0.014421;-0.695162;0.019341
29227;10.921632;1.224219;0.395469;1.014855;-0.787462;-0.167260;-0.657471;-0.010254;-0.523926;0.713747;0.021498;-0.699659;0.024088
29228;11.494321;1.339228;-0.055891;0.860637;-0.810971;-0.141790;-0.671387;-0.023193;-0.511230;0.708856;0.027494;-0.704258;0.028068
29229;11.346476;1.318326;0.094176;0.534118;-0.801932;-0.105415;-0.669434;-0.024658;-0.506836;0.704012;0.031364;-0.708845;0.030378
29230;11.296950;0.386931;-0.127750;-0.123185;-0.861496;-0.033520;-0.675537;-0.021729;-0.500244;0.698950;0.030941;-0.713906;0.029158
29231;10.596380;-1.081868;0.160678;-0.993906;-0.753226;-0.060667;-0.687744;-0.014160;-0.489990;0.694713;0.025566;-0.718477;0.022606
29232;9.990180;-2.008888;1.027927;-1.878802;-0.699771;-0.166217;-0.694824;-0.008789;-0.494629;0.690855;0.015693;-0.722751;0.010183
29233;10.517200;-2.822806;1.554336;-2.606292;-0.781075;-0.260870;-0.705322;0.020996;-0.470215;0.686355;0.002226;-0.727228;-0.007207
29234;11.555070;-4.304253;1.877270;-2.923996;-0.866716;-0.291659;-0.705811;0.032715;-0.461670;0.680896;-0.012909;-0.731782;-0.026629
29235;12.593549;-5.365622;1.940214;-2.613996;-0.916902;-0.296292;-0.710693;0.048096;-0.446045;0.674772;-0.026229;-0.736236;-0.044172
29236;13.238165;-5.249228;2.015709;-1.832184;-0.993465;-0.358474;-0.723389;0.064453;-0.441406;0.668035;-0.034781;-0.741111;-0.057211
29237;13.507896;-4.558092;1.305442;-1.065328;-1.103178;-0.439159;-0.729248;0.063721;-0.409668;0.660656;-0.038643;-0.746788;-0.065937
29238;12.779643;-3.811991;0.707102;-0.373543;-0.960450;-0.630378;-0.727783;0.059082;-0.412109;0.654156;-0.037392;-0.752056;-0.071367
29239;11.741499;-3.116279;0.295195;0.225879;-0.789070;-0.646992;-0.744873;0.043213;-0.404053;0.648896;-0.032678;-0.756638;-0.073245
29240;10.976346;-2.626624;0.084658;0.598412;-0.599946;-0.493562;-0.747803;0.031250;-0.392090;0.644966;-0.026765;-0.760345;-0.071955
29241;10.750765;-2.138467;-0.049174;0.808194;-0.465790;-0.276067;-0.750488;0.038086;-0.390137;0.642013;-0.021010;-0.763368;-0.068168
29242;10.761508;-1.898917;-0.276283;0.997789;-0.320220;-0.119245;-0.752930;0.024414;-0.385010;0.640076;-0.015211;-0.765625;-0.062373
29243;10.740745;-1.923076;-0.163679;1.307453;-0.114066;-0.032659;-0.749756;0.024658;-0.380615;0.639472;-0.008178;-0.766862;-0.054144
29244;10.556550;-2.209755;-0.168460;1.721477;0.077109;0.008972;-0.745605;0.000977;-0.385010;0.640034;0.000860;-0.767140;-0.043038
29245;10.319261;-2.138408;-0.782613;2.188728;0.207284;-0.049070;-0.755615;-0.020996;-0.387939;0.641240;0.012848;-0.766675;-0.029258
29246;9.984034;-1.611658;-1.259655;2.573364;0.343702;-0.194913;-0.753906;-0.036377;-0.384277;0.642971;0.027875;-0.765260;-0.013752
29247;9.702383;-1.182742;-1.697574;2.808355;0.455165;-0.322558;-0.749023;-0.042725;-0.390869;0.644996;0.044966;-0.762857;0.002639
29248;9.580903;-0.884516;-2.228428;2.954870;0.543024;-0.439713;-0.743652;-0.074707;-0.392090;0.647154;0.063504;-0.759463;0.019366
29249;9.304454;-1.010261;-2.451630;3.128480;0.638451;-0.542902;-0.728516;-0.099121;-0.402344;0.649394;0.083600;-0.754953;0.036673
29250;8.924337;-1.255746;-2.626580;3.395036;0.654122;-0.585743;-0.741211;-0.128418;-0.406494;0.651086;0.105324;-0.749620;0.055353
29251;8.899003;-1.256249;-2.684607;3.640793;0.679313;-0.593815;-0.727539;-0.171143;-0.401611;0.652111;0.128311;-0.743359;0.075538
29252;9.333677;-1.183978;-2.836317;3.903656;0.763984;-0.605442;-0.717285;-0.199463;-0.398682;0.652701;0.152673;-0.735670;0.097272
29253;9.511708;-0.723634;-3.292993;4.133931;0.877984;-0.587852;-0.717529;-0.233643;-0.393311;0.652913;0.177882;-0.726313;0.120546
29254;9.284936;-0.247171;-3.633540;4.288610;0.887978;-0.463871;-0.703857;-0.262695;-0.373535;0.651958;0.202934;-0.715996;0.145321
29255;9.178016;0.126626;-3.798900;4.264656;0.788567;-0.229896;-0.697510;-0.298584;-0.371094;0.649256;0.226320;-0.705715;0.170917
29256;8.934316;0.563852;-3.945446;3.999069;0.666281;0.047314;-0.690918;-0.319580;-0.360840;0.645192;0.246563;-0.696092;0.195936
29257;8.627853;0.947025;-3.978458;3.575652;0.532816;0.318773;-0.690674;-0.333252;-0.344727;0.640142;0.262892;-0.687709;0.219459
29258;8.518111;0.921715;-3.867887;3.265709;0.398564;0.531637;-0.695068;-0.348877;-0.338379;0.634049;0.276349;-0.680516;0.241889
29259;8.651345;0.768001;-3.647616;3.169962;0.257503;0.636152;-0.696533;-0.361328;-0.311279;0.626738;0.288769;-0.673972;0.263769
29260;8.876107;0.387105;-3.381317;3.206947;0.207210;0.634005;-0.700439;-0.365967;-0.294922;0.618503;0.301393;-0.667128;0.285581
29261;9.006601;-0.034121;-3.027477;3.338011;0.239791;0.533277;-0.705322;-0.377441;-0.281494;0.609879;0.314887;-0.659053;0.307479
29262;8.923750;-0.195299;-2.878487;3.499593;0.291949;0.388439;-0.706787;-0.390381;-0.262451;0.601017;0.329576;-0.649361;0.329376
29263;8.663135;0.030128;-2.881153;3.663353;0.316319;0.229820;-0.699707;-0.392578;-0.245361;0.591729;0.345600;-0.638070;0.351119
29264;8.584300;0.518243;-2.983424;3.747892;0.296107;0.053255;-0.704102;-0.417969;-0.220947;0.582103;0.362565;-0.625533;0.372036
29265;9.515307;1.044221;-3.278623;3.697791;0.209476;-0.170735;-0.699707;-0.431152;-0.204346;0.572276;0.380535;-0.612254;0.390946
29266;11.381385;1.709971;-3.956590;3.452774;0.084612;-0.436924;-0.700684;-0.434570;-0.167480;0.563061;0.398660;-0.598977;0.406520
29267;12.415600;2.695743;-3.961806;2.971060;-0.053885;-0.579861;-0.703613;-0.460449;-0.141357;0.554539;0.415419;-0.587159;0.418518
29268;11.311936;3.721030;-2.096565;2.280178;-0.291148;-0.446540;-0.691406;-0.456787;-0.122070;0.546462;0.429106;-0.578967;0.426666
29269;9.805324;4.334913;0.867755;1.403613;-0.560934;-0.111553;-0.680908;-0.474854;-0.110596;0.538917;0.437869;-0.576215;0.431065
29270;9.263477;3.633928;3.438493;0.685756;-0.658230;0.159018;-0.690430;-0.467041;-0.096924;0.532763;0.442567;-0.577257;0.432519
29271;9.738626;1.441794;4.018508;0.429933;-0.449932;0.114400;-0.689697;-0.467285;-0.089111;0.528582;0.445444;-0.578187;0.433452
29272;10.761016;-1.899381;3.246508;0.721321;-0.019314;-0.118438;-0.693848;-0.472656;-0.086426;0.526256;0.449177;-0.575260;0.436316
29273;11.281495;-4.586156;2.044160;1.563624;0.439849;-0.313783;-0.690674;-0.480957;-0.081787;0.523676;0.455772;-0.566464;0.444020
29274;11.152620;-4.811811;0.698804;2.750205;0.657501;-0.333961;-0.690674;-0.481689;-0.060791;0.517567;0.466656;-0.552025;0.457848
29275;11.262922;-3.196332;-0.481060;3.836643;0.712629;-0.283444;-0.687988;-0.494385;-0.038086;0.506653;0.481436;-0.532980;0.476922
29276;11.232463;-1.237578;-1.073361;4.503166;0.795927;-0.207699;-0.681152;-0.493896;-0.003174;0.492565;0.497824;-0.510527;0.498913
29277;10.915788;0.340643;-1.219803;4.720074;0.843328;-0.080773;-0.678711;-0.497314;0.019043;0.476325;0.513735;-0.486694;0.521843
29278;10.514852;1.463268;-1.424137;4.594809;0.836009;0.060520;-0.677734;-0.491699;0.042969;0.459470;0.527691;-0.463303;0.543856
29279;10.066982;2.001300;-1.577224;4.341173;0.819615;0.141475;-0.686523;-0.483154;0.075928;0.442745;0.539571;-0.440860;0.564343
29280;9.476247;2.159512;-1.437957;4.084840;0.830334;0.181883;-0.689697;-0.478271;0.099609;0.426152;0.549705;-0.419192;0.583522
29281;8.829789;2.121628;-1.210821;3.879172;0.804745;0.221435;-0.697510;-0.468262;0.120605;0.409778;0.558496;-0.398295;0.601270
29282;8.223671;2.101144;-1.129341;3.709774;0.717525;0.284855;-0.699219;-0.455078;0.139160;0.393119;0.566283;-0.378455;0.617699
29283;7.842445;2.206576;-1.108942;3.561816;0.588375;0.361773;-0.703369;-0.442383;0.167969;0.376020;0.573422;-0.359816;0.632715
29284;7.685221;2.476368;-1.194324;3.434374;0.446500;0.462296;-0.707275;-0.435547;0.177490;0.357998;0.580370;-0.342363;0.646371
29285;7.698789;2.914978;-1.269718;3.314958;0.307457;0.567821;-0.717285;-0.410156;0.193115;0.339848;0.586700;-0.326257;0.658667
29286;7.860025;3.335395;-1.232137;3.172579;0.199773;0.662318;-0.716309;-0.394287;0.221191;0.321148;0.592263;-0.311560;0.670088
29287;8.193005;3.689647;-1.121004;2.994239;0.139315;0.716515;-0.717041;-0.374268;0.238770;0.302543;0.597546;-0.297924;0.680182
29288;8.518132;4.060420;-0.932529;2.783191;0.105260;0.733825;-0.728516;-0.348389;0.249512;0.284661;0.602137;-0.285456;0.689140
29289;8.598541;4.482781;-0.679208;2.492302;0.054297;0.740922;-0.732422;-0.329834;0.253906;0.267803;0.605696;-0.274774;0.697075
29290;8.527385;4.678017;-0.310927;2.148102;-0.039680;0.737085;-0.738770;-0.312988;0.273682;0.252689;0.608518;-0.266242;0.703540
29291;8.656344;4.676070;-0.083493;1.715899;-0.154348;0.750273;-0.735107;-0.298828;0.285156;0.239181;0.611161;-0.260367;0.708155
29292;8.765799;4.237193;0.154309;1.270910;-0.221642;0.764496;-0.747559;-0.283936;0.287109;0.227825;0.613326;-0.257217;0.711172
29293;8.747124;3.448060;0.452315;0.884470;-0.271938;0.771383;-0.749268;-0.275635;0.302246;0.218388;0.614586;-0.256552;0.713283
29294;8.700450;2.481022;0.723482;0.667620;-0.325500;0.734144;-0.747803;-0.248291;0.317627;0.210194;0.616130;-0.256961;0.714264
29295;8.803159;1.553827;0.910008;0.648960;-0.361350;0.635835;-0.737793;-0.245117;0.312988;0.201750;0.618259;-0.256970;0.714856
29296;9.195015;0.910305;1.012337;0.832652;-0.375250;0.493407;-0.747314;-0.231445;0.323242;0.193890;0.620857;-0.255185;0.715419
29297;9.982623;0.623252;0.862367;1.189567;-0.352464;0.343941;-0.744629;-0.221436;0.336670;0.184855;0.624055;-0.250463;0.716695
29298;10.834757;0.752537;0.537619;1.580574;-0.294618;0.221636;-0.740967;-0.210205;0.341797;0.174558;0.627870;-0.242590;0.718651
29299;11.791983;1.294934;0.185141;1.845419;-0.259335;0.143075;-0.741455;-0.199707;0.346680;0.163514;0.631785;-0.232641;0.721103
29300;12.962012;1.969656;-0.240494;1.868386;-0.293206;0.091912;-0.743408;-0.185791;0.361816;0.152734;0.635715;-0.222313;0.723267
29301;14.929166;2.054360;-0.591506;1.489112;-0.398735;0.057902;-0.735596;-0.175293;0.365967;0.143723;0.639861;-0.214141;0.723923
29302;15.669853;2.546732;-0.021298;0.182451;-0.411141;0.136802;-0.732422;-0.167236;0.378662;0.141251;0.642244;-0.214281;0.722256
29303;14.681342;2.587380;1.304139;-1.080089;-0.726743;0.238787;-0.729004;-0.178467;0.379883;0.143947;0.645056;-0.222843;0.716605
29304;13.718580;1.531695;1.239823;-1.578430;-0.897335;0.123073;-0.723633;-0.190918;0.387207;0.150156;0.648255;-0.233964;0.708857
29305;12.061416;-0.241283;1.608124;-1.494882;-0.736820;-0.064421;-0.723145;-0.199951;0.388428;0.157453;0.650894;-0.243309;0.701674
29306;9.976351;-1.524052;1.867527;-1.031475;-0.545210;-0.132113;-0.717285;-0.204102;0.394775;0.162958;0.652871;-0.249337;0.696444
29307;8.185365;-1.888146;1.477974;-0.427655;-0.279898;-0.196422;-0.717041;-0.212646;0.397217;0.165806;0.654351;-0.251091;0.693748
29308;7.221467;-1.403257;0.871427;-0.053086;-0.010566;-0.293463;-0.715088;-0.209473;0.395020;0.167881;0.654976;-0.249785;0.693131
29309;7.634287;-0.369846;0.563989;-0.025777;0.182789;-0.404478;-0.715332;-0.222656;0.392090;0.170565;0.654662;-0.247455;0.693608
29310;8.706215;0.476284;0.566397;-0.354326;0.262868;-0.475665;-0.715088;-0.229248;0.392578;0.176018;0.653567;-0.246527;0.693608
29311;10.194815;0.463119;0.622338;-0.856853;0.158799;-0.549444;-0.712646;-0.240234;0.385010;0.184224;0.652606;-0.248189;0.691787
29312;11.499795;0.060331;0.028496;-1.207550;0.024974;-0.726276;-0.709961;-0.254639;0.374512;0.195061;0.652114;-0.251101;0.688220
29313;11.787124;-0.440504;-0.633270;-1.186729;-0.033594;-0.907772;-0.699463;-0.267578;0.387207;0.206704;0.652106;-0.253018;0.684115
29314;11.432230;-0.662186;-1.026636;-0.757270;-0.068493;-1.002614;-0.693848;-0.291992;0.374268;0.215859;0.653768;-0.251771;0.680150
29315;10.746266;-0.368837;-1.268943;-0.235809;-0.088435;-1.041826;-0.695068;-0.302979;0.369385;0.222936;0.656205;-0.247469;0.677092
29316;9.833667;0.270379;-1.104545;0.140865;-0.096132;-1.070675;-0.688965;-0.321777;0.379883;0.228067;0.659104;-0.241002;0.674897
29317;8.903769;1.001310;-0.724852;0.288064;-0.148838;-1.035221;-0.673340;-0.328125;0.376221;0.232135;0.662739;-0.233860;0.672458
29318;8.228649;1.680919;-0.474110;0.193570;-0.215286;-0.993926;-0.667480;-0.336182;0.376465;0.236400;0.666363;-0.227613;0.669528
29319;7.738992;2.137245;-0.330634;-0.104390;-0.234551;-0.974547;-0.666016;-0.341553;0.386475;0.242147;0.669299;-0.223209;0.666019
29320;7.507881;2.245944;-0.204604;-0.459968;-0.217234;-0.959968;-0.650879;-0.358887;0.381836;0.249357;0.671451;-0.220751;0.662000
29321;7.325633;2.250141;-0.275873;-0.787874;-0.181760;-0.953511;-0.646729;-0.380371;0.377686;0.258716;0.672671;-0.220027;0.657395
29322;7.206283;1.899085;-0.355060;-1.026963;-0.151706;-0.932468;-0.643311;-0.393555;0.371338;0.269558;0.673007;-0.220680;0.652457
29323;7.135076;1.336255;-0.493643;-1.117219;-0.162865;-0.916861;-0.629639;-0.399902;0.375244;0.280638;0.672970;-0.221954;0.647372
29324;7.199902;0.877387;-0.763856;-1.041735;-0.207136;-0.919479;-0.621826;-0.423828;0.361328;0.290627;0.673605;-0.222663;0.642038
29325;7.358279;0.390959;-0.988002;-0.848212;-0.239581;-0.966484;-0.617920;-0.436279;0.356689;0.300218;0.674642;-0.222276;0.636648
29326;7.645396;0.245910;-1.270786;-0.550387;-0.232016;-1.026984;-0.614990;-0.451904;0.362549;0.308340;0.676317;-0.219988;0.631765
29327;8.033830;0.194628;-1.482041;-0.217747;-0.227964;-1.087294;-0.593262;-0.474121;0.358643;0.314695;0.678979;-0.215505;0.627306
29328;8.405456;0.533817;-1.627865;0.087244;-0.207896;-1.100473;-0.584473;-0.469727;0.359131;0.319932;0.682372;-0.209258;0.623075
29329;8.936458;0.926772;-1.533621;0.313433;-0.256325;-1.010367;-0.567627;-0.478027;0.372070;0.322883;0.686313;-0.202502;0.619446
29330;10.009859;1.368297;-1.548063;0.409990;-0.331247;-0.868940;-0.566162;-0.485596;0.366699;0.324256;0.690909;-0.196016;0.615696
29331;11.494747;1.818026;-1.634675;0.396134;-0.394165;-0.701454;-0.555664;-0.490723;0.387939;0.325067;0.695050;-0.191063;0.612153
29332;12.619314;2.435023;-1.476464;0.307871;-0.401133;-0.474115;-0.548340;-0.499756;0.386963;0.324844;0.698974;-0.187563;0.608878
29333;13.319140;2.612464;-0.853438;0.206105;-0.389948;-0.236908;-0.549561;-0.498535;0.390381;0.324435;0.701995;-0.186110;0.606059
29334;14.103862;2.195012;-0.243189;0.248051;-0.384124;-0.018083;-0.543701;-0.498535;0.399170;0.322617;0.704618;-0.185805;0.604076
29335;15.890104;1.972832;-0.538412;0.635523;-0.314427;0.165854;-0.539795;-0.495117;0.410156;0.317669;0.707748;-0.184347;0.603486
29336;16.975147;2.439154;-1.051631;1.459029;0.008579;0.253407;-0.541260;-0.466797;0.418945;0.307897;0.711335;-0.178325;0.606138
29337;15.879502;3.308751;-0.441340;2.250724;0.307073;0.389943;-0.551514;-0.460205;0.430908;0.292703;0.715007;-0.168286;0.612185
29338;13.094670;3.797638;0.927320;2.379899;0.446960;0.706767;-0.558350;-0.432129;0.447510;0.275639;0.717397;-0.159254;0.619680
29339;10.163200;2.650093;2.103201;1.713671;0.467882;1.097748;-0.566895;-0.418457;0.451904;0.260257;0.717461;-0.155786;0.627094
29340;8.609902;0.051168;2.622834;0.922966;0.532195;1.292835;-0.567627;-0.403564;0.457520;0.249011;0.715005;-0.157551;0.633987
29341;7.272660;-1.956774;2.683296;0.072363;0.719375;1.043005;-0.584961;-0.372803;0.443604;0.244462;0.710283;-0.161772;0.639973
29342;7.249390;-3.485372;2.541225;-0.399344;0.624351;0.740571;-0.603516;-0.376221;0.442871;0.243591;0.705218;-0.166924;0.644568
29343;8.950355;-4.385885;1.747422;-0.012495;0.338907;0.827186;-0.605469;-0.364990;0.438232;0.239615;0.702326;-0.171078;0.648117
29344;10.612279;-4.468761;1.159438;1.063582;0.273888;0.964366;-0.609375;-0.353760;0.440918;0.228438;0.701719;-0.170309;0.652995
29345;11.407160;-3.695330;0.696328;2.313378;0.398855;0.911330;-0.630615;-0.321533;0.444824;0.210612;0.702709;-0.162198;0.659950
29346;11.819081;-1.911190;0.056148;3.265539;0.526585;0.787475;-0.628906;-0.286621;0.465332;0.187788;0.704095;-0.147954;0.668653
29347;11.485371;0.542394;-0.536143;3.664934;0.687209;0.685613;-0.639893;-0.257080;0.470459;0.162966;0.705047;-0.130270;0.677777
29348;10.496672;2.684908;-0.940529;3.381722;0.781695;0.716049;-0.646484;-0.216309;0.474121;0.139914;0.704253;-0.114281;0.686580
29349;9.516038;3.920333;-1.219750;2.567525;0.805782;0.885121;-0.658447;-0.185791;0.470459;0.120353;0.701712;-0.103775;0.694511
29350;8.653578;3.729257;-1.059593;1.564590;0.836290;1.041867;-0.663574;-0.165039;0.465332;0.105760;0.697432;-0.099976;0.701718
29351;8.072492;2.913791;-0.759444;0.719378;0.752702;1.133042;-0.670898;-0.146484;0.460693;0.095602;0.692720;-0.101716;0.707569
29352;7.790807;1.889363;-0.521321;0.279464;0.634552;1.137787;-0.679932;-0.133789;0.453857;0.087787;0.688315;-0.106112;0.712219
29353;7.645317;1.041946;-0.443702;0.238563;0.527561;1.046681;-0.683838;-0.118164;0.453125;0.080760;0.684485;-0.110340;0.716089
29354;7.634875;0.583334;-0.457100;0.419836;0.448979;0.922484;-0.687012;-0.107422;0.444092;0.073180;0.681441;-0.112718;0.719429
29355;7.627643;0.392165;-0.567699;0.735727;0.417606;0.796768;-0.699707;-0.098877;0.443604;0.064752;0.678743;-0.112603;0.722797
29356;7.494654;0.672323;-0.661181;1.080056;0.400694;0.682403;-0.699219;-0.072021;0.446289;0.055294;0.676322;-0.109847;0.726268
29357;7.458235;1.051142;-0.663778;1.326435;0.353501;0.569846;-0.697754;-0.058838;0.444336;0.044429;0.674501;-0.104739;0.729455
29358;7.461702;1.506751;-0.646604;1.448193;0.278304;0.494848;-0.705566;-0.042236;0.437744;0.033410;0.673210;-0.098508;0.732098
29359;7.586924;2.158652;-0.671384;1.444587;0.212122;0.450684;-0.702148;-0.020752;0.429443;0.022695;0.672044;-0.092137;0.734406
29360;7.874748;2.793131;-0.623912;1.289645;0.196246;0.406366;-0.707275;-0.008545;0.432861;0.012888;0.670781;-0.086429;0.736490
29361;8.154058;3.230484;-0.561575;0.968395;0.248465;0.372456;-0.713623;-0.001221;0.434326;0.005175;0.669197;-0.082473;0.738476
29362;8.127716;3.321241;0.028750;0.535661;0.311282;0.368645;-0.717041;0.013428;0.426025;0.000125;0.667213;-0.081177;0.740431
29363;7.935699;3.050790;0.742457;0.041055;0.236566;0.391368;-0.712158;0.015869;0.423340;-0.002617;0.665514;-0.083029;0.741748
29364;8.377671;2.182164;1.006086;-0.421908;0.050118;0.358801;-0.709717;0.011719;0.424561;-0.002615;0.665085;-0.087555;0.741613
29365;9.334293;0.914864;0.815936;-0.743278;-0.104849;0.241780;-0.707031;0.015381;0.429932;0.000021;0.665763;-0.093444;0.740289
29366;10.460219;-0.536907;0.656140;-0.813083;-0.254213;0.056561;-0.706299;0.003906;0.424561;0.003712;0.667579;-0.098600;0.737972
29367;11.532483;-1.324433;0.582679;-0.533791;-0.409745;-0.155028;-0.700195;0.010254;0.425781;0.007478;0.670273;-0.101057;0.735164
29368;12.691158;-1.115733;0.283609;-0.050682;-0.594472;-0.313434;-0.695801;-0.006836;0.446045;0.008797;0.674181;-0.099545;0.731775
29369;14.257342;-0.139390;-0.363037;0.371068;-0.716922;-0.427491;-0.691162;-0.003418;0.444580;0.008813;0.679255;-0.094833;0.727696
29370;15.528795;1.278219;-0.956198;0.318393;-0.710529;-0.461272;-0.683350;-0.003418;0.446045;0.009211;0.684010;-0.090305;0.723803
29371;15.737253;2.363400;-0.616420;-0.490481;-0.755286;-0.359962;-0.676758;-0.009521;0.462646;0.013518;0.688736;-0.091253;0.719119
29372;14.845798;2.458497;-0.054227;-1.765213;-0.921775;-0.205137;-0.665527;-0.026367;0.473877;0.023898;0.694274;-0.100576;0.712248
29373;12.492174;1.537964;0.256541;-2.778247;-0.947114;-0.142594;-0.666016;-0.056885;0.482666;0.039774;0.699476;-0.116198;0.704023
29374;9.917779;0.397991;0.388125;-3.228901;-0.813855;-0.168756;-0.657471;-0.084717;0.487305;0.058910;0.703165;-0.134346;0.695730
29375;8.867456;-0.802578;0.336382;-3.302536;-0.587463;-0.251087;-0.645264;-0.116699;0.485840;0.079147;0.705044;-0.152208;0.688099
29376;9.109138;-1.934569;-0.026140;-3.098370;-0.219217;-0.445515;-0.653076;-0.142822;0.486084;0.099807;0.704700;-0.167416;0.682209
29377;9.668130;-2.874651;-0.300627;-2.697427;0.161616;-0.710528;-0.644287;-0.165283;0.480225;0.119887;0.702398;-0.178320;0.678576
29378;10.065199;-3.337764;-0.384334;-2.252141;0.331015;-1.007598;-0.636719;-0.196045;0.469482;0.138942;0.699825;-0.184550;0.675930
29379;10.819470;-2.988734;-0.734749;-1.889333;0.235628;-1.337246;-0.646729;-0.222900;0.457520;0.157648;0.698472;-0.186859;0.672583
29380;11.693350;-1.830625;-1.191304;-1.630117;0.032913;-1.629073;-0.638916;-0.243652;0.445068;0.176167;0.698582;-0.186360;0.667996
29381;11.954144;-0.521671;-1.132174;-1.402637;-0.193132;-1.762932;-0.623047;-0.282715;0.442871;0.193620;0.700173;-0.184120;0.662094
29382;11.505732;0.437771;-0.774900;-1.205305;-0.401469;-1.689471;-0.614502;-0.310791;0.441406;0.209354;0.702970;-0.181486;0.655032
29383;10.476571;0.880437;-0.572851;-1.064129;-0.460098;-1.529909;-0.600098;-0.330811;0.436523;0.223267;0.705867;-0.179087;0.647944
29384;9.167497;1.176145;-0.419369;-1.035851;-0.399395;-1.403758;-0.587158;-0.352051;0.445312;0.236369;0.708108;-0.177141;0.641354
29385;7.991947;1.278216;-0.155979;-1.095294;-0.323003;-1.330040;-0.583496;-0.369141;0.437988;0.249346;0.709666;-0.175612;0.635107
29386;7.217023;1.301893;-0.223930;-1.262731;-0.265956;-1.289574;-0.571289;-0.388184;0.425293;0.263156;0.710269;-0.175132;0.628964
29387;6.866123;0.942881;-0.313384;-1.312457;-0.192901;-1.266946;-0.563721;-0.411621;0.432129;0.277267;0.710136;-0.174915;0.623085
29388;6.693624;0.620008;-0.473844;-1.237055;-0.130310;-1.229185;-0.552246;-0.436523;0.416260;0.290656;0.709720;-0.174220;0.617627
29389;6.549668;0.324308;-0.634941;-1.031032;-0.096537;-1.198108;-0.537598;-0.451660;0.406494;0.302802;0.709390;-0.172638;0.612595
29390;6.513331;0.390245;-0.802061;-0.766738;-0.081071;-1.183718;-0.522217;-0.458008;0.410156;0.313291;0.709516;-0.169731;0.607970
29391;6.520552;0.399575;-0.913367;-0.490303;-0.077665;-1.184319;-0.524902;-0.470703;0.410400;0.322010;0.710302;-0.165299;0.603703
29392;6.565643;0.584975;-1.072158;-0.264498;-0.101469;-1.193062;-0.517334;-0.493896;0.394531;0.329387;0.711712;-0.159767;0.599537
29393;6.866200;0.864250;-1.336400;-0.182399;-0.146989;-1.227133;-0.493164;-0.494385;0.401855;0.336469;0.713502;-0.153836;0.595010
29394;7.530287;1.142877;-1.701989;-0.199316;-0.188818;-1.238464;-0.492432;-0.505859;0.399170;0.343553;0.715425;-0.147949;0.590127
29395;8.271468;1.410605;-2.031377;-0.230302;-0.233963;-1.189381;-0.476318;-0.520264;0.395996;0.350500;0.717326;-0.142650;0.585016
29396;8.891672;1.728626;-2.100733;-0.217877;-0.266004;-1.034144;-0.464355;-0.534180;0.398438;0.356559;0.719169;-0.138310;0.580114
29397;9.753507;2.163276;-1.952293;-0.162024;-0.318909;-0.771049;-0.457764;-0.532959;0.398438;0.360925;0.721086;-0.135426;0.575698
29398;11.350335;2.674684;-2.016150;-0.130496;-0.393852;-0.503414;-0.457520;-0.536133;0.394775;0.363709;0.723124;-0.134215;0.571658
29399;12.736105;3.245532;-2.052601;-0.120459;-0.364406;-0.213268;-0.446045;-0.546387;0.401855;0.365082;0.724708;-0.134631;0.568672
29400;13.208364;3.307082;-1.538801;-0.082591;-0.246970;0.051776;-0.440186;-0.545654;0.402832;0.365100;0.725554;-0.136107;0.567229
29401;13.229324;2.450338;-0.719290;0.029168;-0.154803;0.248036;-0.446045;-0.537598;0.394775;0.363616;0.726079;-0.137961;0.567062
29402;12.885033;1.516223;-0.385365;0.338047;-0.035829;0.402230;-0.442627;-0.527832;0.401855;0.359669;0.726786;-0.138942;0.568433
29403;13.179898;0.521791;-0.086613;0.826134;0.125985;0.486490;-0.452148;-0.525391;0.418701;0.352529;0.728066;-0.137620;0.571580
29404;14.477763;0.321500;-0.994708;1.568876;0.272909;0.470455;-0.462646;-0.506836;0.431641;0.341080;0.730756;-0.132215;0.576349
29405;14.925404;1.316233;-1.310668;2.627930;0.445680;0.504954;-0.468994;-0.489258;0.451904;0.323085;0.735333;-0.121406;0.583235
29406;14.278026;3.476054;-0.906942;3.512210;0.510354;0.842781;-0.481445;-0.458984;0.460938;0.297870;0.741110;-0.108123;0.591895
29407;11.533785;5.812898;0.137276;3.596548;0.651448;1.252480;-0.493164;-0.419189;0.485107;0.269971;0.745298;-0.096525;0.601938
29408;9.282758;6.019007;1.383821;2.703300;0.687710;1.555995;-0.517334;-0.374023;0.498535;0.245881;0.746410;-0.091110;0.611648
29409;8.307112;4.361778;1.690960;1.456872;0.751474;1.635448;-0.533447;-0.349609;0.494141;0.229023;0.744179;-0.092338;0.620661
29410;7.194322;2.103323;1.658219;0.290016;0.945289;1.361231;-0.542480;-0.339355;0.496094;0.220920;0.738712;-0.097513;0.629277
29411;6.489463;0.346847;1.207379;-0.629275;0.888852;1.106688;-0.551270;-0.332764;0.484863;0.219722;0.731937;-0.106013;0.636201
29412;7.516005;-1.462704;0.952398;-1.014604;0.579428;1.128224;-0.562744;-0.332031;0.467773;0.220444;0.725952;-0.117230;0.640824
29413;9.116846;-2.572579;0.549057;-0.645665;0.407888;1.204599;-0.572510;-0.322266;0.471191;0.218334;0.721357;-0.127255;0.644810
29414;10.185030;-3.274791;0.260069;0.172808;0.431690;1.124271;-0.584961;-0.313232;0.463623;0.211708;0.718132;-0.132323;0.649582
29415;10.517452;-2.825511;-0.133352;1.100570;0.481691;1.003436;-0.590332;-0.300537;0.466309;0.200227;0.716298;-0.131566;0.655375
29416;10.581706;-1.523978;-0.392835;1.888433;0.565994;0.921646;-0.600830;-0.270264;0.465820;0.184543;0.715234;-0.125857;0.662226
29417;10.451623;0.323618;-0.684519;2.303068;0.674790;0.900492;-0.607422;-0.249268;0.473389;0.166534;0.713946;-0.117518;0.669878
29418;9.862421;1.732809;-0.757095;2.280967;0.793153;0.898087;-0.626465;-0.214600;0.468262;0.148721;0.711650;-0.109076;0.677892
29419;9.193603;2.691782;-0.777292;1.865354;0.810108;0.940306;-0.634033;-0.190186;0.475342;0.133070;0.708404;-0.103165;0.685430
29420;8.690958;2.855645;-0.827301;1.260456;0.751872;1.001334;-0.636475;-0.175781;0.462891;0.120539;0.704584;-0.101084;0.691964
29421;8.359711;2.510231;-0.783554;0.739684;0.662920;1.043800;-0.648438;-0.152100;0.456787;0.110765;0.700585;-0.102349;0.697450
29422;8.235113;1.932256;-0.737957;0.423500;0.588110;1.067411;-0.649414;-0.130615;0.455322;0.102589;0.696613;-0.105627;0.702175
29423;8.034949;1.393652;-0.699848;0.373769;0.518067;1.081204;-0.666260;-0.123291;0.450195;0.094509;0.692936;-0.109294;0.706373
29424;7.913013;1.092301;-0.624282;0.534068;0.442594;1.056473;-0.677002;-0.104248;0.446533;0.085616;0.689760;-0.111953;0.710189
29425;7.899009;1.093789;-0.665472;0.792091;0.380019;0.983166;-0.671631;-0.093994;0.440674;0.075592;0.687123;-0.112689;0.713757
29426;7.828606;1.272969;-0.572623;1.033750;0.313618;0.883478;-0.671387;-0.066895;0.439697;0.064741;0.685049;-0.111458;0.717003
29427;7.859516;1.500589;-0.607280;1.223176;0.207148;0.755091;-0.687012;-0.054932;0.439453;0.053409;0.683747;-0.108369;0.719648
29428;8.067619;1.918634;-0.644056;1.297972;0.132559;0.660952;-0.678955;-0.042236;0.441406;0.042183;0.682893;-0.104338;0.721797
29429;8.218538;2.397164;-0.581234;1.203666;0.091422;0.597643;-0.677490;-0.016113;0.438232;0.031845;0.682239;-0.100509;0.723487
29430;8.277590;2.970190;-0.234083;0.895991;0.081534;0.567066;-0.683838;-0.005371;0.444336;0.023364;0.681517;-0.098319;0.724791
29431;8.143421;3.442985;0.302924;0.340150;0.042085;0.567088;-0.689697;0.000488;0.441650;0.018019;0.680898;-0.099487;0.725366
29432;8.448837;2.902294;0.667128;-0.305076;-0.100725;0.542236;-0.686035;0.011230;0.437256;0.016399;0.681030;-0.104446;0.724582
29433;9.445204;1.424349;0.391702;-0.787933;-0.254881;0.432450;-0.685303;0.007080;0.437988;0.018009;0.682083;-0.111693;0.722470
29434;10.504531;-0.396407;0.296332;-0.934832;-0.336553;0.209148;-0.671143;0.000977;0.437744;0.021754;0.683761;-0.118573;0.719679
29435;11.462560;-1.400753;0.500052;-0.742530;-0.408547;-0.056888;-0.667725;-0.007812;0.445557;0.025930;0.686139;-0.122784;0.716565
29436;12.210263;-1.125495;0.344023;-0.445220;-0.489325;-0.215413;-0.667969;-0.012207;0.447510;0.029281;0.689207;-0.124327;0.713217
29437;13.306907;-0.437222;-0.058023;-0.405776;-0.607119;-0.307402;-0.664551;-0.018799;0.454590;0.032831;0.693036;-0.125138;0.709200
29438;14.611772;-0.145568;-0.569167;-0.912725;-0.717600;-0.354780;-0.670166;-0.028320;0.464600;0.039472;0.697378;-0.128690;0.703950
29439;14.877807;-0.149383;-0.551707;-1.870023;-0.879126;-0.336990;-0.653076;-0.039062;0.463867;0.051392;0.702178;-0.137991;0.696609
29440;14.153474;-0.323079;-0.468668;-2.641007;-1.016579;-0.380769;-0.647217;-0.073486;0.480469;0.067850;0.707189;-0.151482;0.687265
29441;12.185714;-0.791037;-0.524418;-2.827599;-0.910177;-0.527977;-0.635498;-0.097168;0.486084;0.086400;0.711262;-0.165041;0.677792
29442;10.246734;-1.138604;-0.214443;-2.633128;-0.692229;-0.593827;-0.626953;-0.124023;0.488525;0.104383;0.713925;-0.176835;0.669436
29443;9.613588;-1.201182;-0.068338;-2.308791;-0.428482;-0.627419;-0.628906;-0.150879;0.489014;0.120962;0.715109;-0.186303;0.662781
29444;9.743387;-1.030416;-0.255830;-2.039658;-0.111613;-0.686744;-0.621338;-0.174072;0.478516;0.136729;0.714631;-0.193558;0.658136
29445;9.901412;-1.180074;-0.579652;-1.951432;0.105331;-0.830375;-0.612549;-0.198242;0.477295;0.153077;0.713061;-0.199174;0.654555
29446;10.154887;-1.250527;-0.927572;-1.977278;0.168012;-1.070604;-0.622559;-0.229736;0.461670;0.170918;0.711300;-0.203329;0.650766
29447;10.769394;-0.983001;-1.345351;-1.959350;0.090689;-1.385756;-0.612549;-0.256592;0.460938;0.190224;0.710207;-0.205611;0.645868
29448;11.636160;-0.527249;-1.943221;-1.839774;-0.027546;-1.684201;-0.604004;-0.279297;0.450195;0.210101;0.710181;-0.205544;0.639728
29449;11.802177;-0.203330;-1.892497;-1.601072;-0.056938;-1.880613;-0.596191;-0.320557;0.437256;0.229445;0.710758;-0.202993;0.633223
29450;11.055861;-0.067652;-1.305162;-1.225170;-0.108074;-1.906491;-0.588623;-0.339844;0.435303;0.246594;0.712067;-0.198379;0.626735
29451;10.021395;0.232015;-0.881199;-0.835899;-0.190439;-1.809571;-0.578369;-0.364502;0.433594;0.260662;0.714227;-0.192380;0.620423
29452;9.093707;0.685076;-0.557934;-0.587282;-0.248793;-1.682759;-0.560791;-0.379639;0.434082;0.272440;0.716844;-0.185932;0.614281
29453;8.403121;1.028388;-0.340161;-0.516336;-0.245358;-1.565928;-0.552002;-0.404297;0.428223;0.283121;0.719284;-0.179747;0.608411
29454;7.835753;1.429072;-0.280398;-0.577069;-0.179569;-1.415864;-0.540771;-0.419678;0.421387;0.293500;0.720876;-0.174627;0.603076
29455;7.237103;1.492950;-0.267024;-0.715056;-0.127479;-1.277071;-0.524658;-0.434326;0.427246;0.304047;0.721548;-0.170889;0.598098
29456;6.863649;1.399894;-0.383149;-0.818587;-0.097336;-1.184325;-0.523926;-0.453369;0.421875;0.314713;0.721589;-0.168075;0.593309
29457;6.747035;1.067024;-0.594027;-0.827439;-0.063071;-1.153111;-0.515625;-0.465088;0.410400;0.325297;0.721280;-0.165398;0.588711
29458;6.839317;0.814695;-0.779901;-0.636363;-0.026503;-1.177088;-0.504883;-0.484131;0.414062;0.334864;0.721239;-0.161532;0.584455
29459;6.975326;0.778258;-0.922028;-0.444623;0.039756;-1.249993;-0.493896;-0.497070;0.399658;0.343670;0.721429;-0.156072;0.580580
29460;7.241555;0.981658;-1.088353;-0.278724;0.077421;-1.328896;-0.488037;-0.518311;0.402832;0.351898;0.721910;-0.149251;0.576834
29461;7.510851;1.279641;-1.294350;-0.117347;0.032761;-1.362250;-0.477295;-0.521484;0.393799;0.359217;0.723030;-0.141569;0.572843
29462;7.920657;1.604308;-1.525860;0.027026;-0.029738;-1.304062;-0.460938;-0.524414;0.405273;0.365267;0.724717;-0.133723;0.568756
29463;8.248691;2.021457;-1.724897;0.083104;-0.105887;-1.183800;-0.461426;-0.536621;0.395996;0.370231;0.726741;-0.126489;0.564603
29464;8.505156;2.238564;-1.811179;0.090100;-0.151474;-1.055064;-0.440430;-0.545166;0.402588;0.374512;0.728782;-0.120199;0.560509
29465;8.714321;2.582386;-1.643124;0.058986;-0.172343;-0.863406;-0.431396;-0.546875;0.399414;0.378031;0.730594;-0.115258;0.556813
29466;9.255272;2.825033;-1.559326;-0.020344;-0.204342;-0.644811;-0.438232;-0.556641;0.410645;0.380976;0.732061;-0.112121;0.553510
29467;10.172337;2.989689;-1.519742;-0.043264;-0.212324;-0.443762;-0.420410;-0.557373;0.409180;0.383097;0.733287;-0.110322;0.550777
29468;11.125702;3.257987;-1.375858;-0.040295;-0.203213;-0.246045;-0.418701;-0.561523;0.409180;0.384303;0.734296;-0.109693;0.548715
29469;11.581815;3.063365;-1.145526;0.004269;-0.158032;-0.056541;-0.408691;-0.556641;0.407959;0.384418;0.735061;-0.109891;0.547570
29470;11.497754;2.819820;-0.749425;0.257042;-0.061150;0.131367;-0.415771;-0.552246;0.404541;0.382210;0.736021;-0.109772;0.547849
29471;12.295058;2.956550;-0.649145;0.649381;-0.012775;0.327259;-0.417725;-0.545166;0.425537;0.376749;0.737809;-0.108929;0.549393
29472;14.331036;3.349300;-1.453557;1.054523;0.072407;0.410592;-0.423096;-0.542480;0.433350;0.368431;0.740368;-0.106422;0.552076
29473;16.059583;4.112940;-2.067091;1.461379;0.231092;0.518727;-0.438721;-0.528076;0.442139;0.357221;0.743251;-0.102243;0.556343
29474;15.164576;4.724957;-1.683133;1.917525;0.401395;0.792461;-0.438965;-0.501465;0.455322;0.341982;0.746286;-0.097131;0.562735
29475;12.050187;5.483819;0.179002;2.090437;0.487364;1.278998;-0.457764;-0.483154;0.464600;0.323317;0.748746;-0.093938;0.570983
29476;9.200650;4.860362;1.662265;1.818571;0.492972;1.681548;-0.470215;-0.451416;0.472168;0.304324;0.749796;-0.094526;0.579877
29477;7.300141;3.062352;2.441277;1.262406;0.544562;1.834552;-0.498291;-0.424072;0.486572;0.287979;0.748765;-0.098577;0.588814
29478;6.692466;0.834018;2.264562;0.661100;0.737174;1.678652;-0.515381;-0.421143;0.483154;0.276182;0.745241;-0.104074;0.597920
29479;6.819309;-1.088305;1.234871;0.207925;0.920814;1.192973;-0.532471;-0.404541;0.479736;0.269777;0.740013;-0.108424;0.606503
29480;7.640450;-1.732394;0.492230;-0.032159;0.864041;0.776500;-0.536865;-0.393799;0.468750;0.266845;0.734817;-0.111511;0.613517
29481;9.728814;-1.252304;-0.167734;0.201412;0.592696;0.760504;-0.549316;-0.380859;0.465576;0.262284;0.731485;-0.113896;0.619002
29482;11.824743;-0.950166;-0.726009;0.872722;0.459442;0.951703;-0.559814;-0.368164;0.461914;0.252474;0.730055;-0.114254;0.624678
29483;12.436781;-0.305785;-1.000170;1.661073;0.518699;1.144721;-0.568359;-0.342529;0.470947;0.236888;0.729627;-0.111564;0.631729
29484;11.999214;0.637739;-1.191492;2.262481;0.570839;1.293149;-0.582031;-0.319824;0.479492;0.216801;0.729691;-0.106447;0.639701
29485;11.233420;1.577983;-1.224240;2.514844;0.669671;1.343217;-0.605713;-0.275879;0.484863;0.194910;0.729240;-0.100080;0.648230
29486;10.085173;2.418661;-1.126273;2.383626;0.819152;1.329162;-0.613037;-0.242920;0.490723;0.173857;0.727355;-0.094002;0.657185
29487;8.759076;3.013181;-0.893709;1.908383;0.880498;1.339182;-0.624023;-0.227051;0.486328;0.155581;0.724085;-0.090439;0.665820
29488;8.069887;3.067854;-0.838822;1.237951;0.823817;1.378335;-0.635742;-0.192383;0.475098;0.141116;0.719963;-0.090932;0.673402
29489;7.786239;2.603210;-0.908606;0.598494;0.745044;1.420208;-0.639648;-0.173828;0.474609;0.130116;0.715320;-0.095304;0.679929
29490;7.678257;2.073500;-0.966886;0.184739;0.647255;1.406629;-0.656006;-0.151611;0.462646;0.121549;0.710674;-0.102012;0.685391
29491;7.978455;1.394907;-0.917464;0.045819;0.549689;1.338347;-0.663330;-0.139404;0.461426;0.114079;0.706380;-0.109188;0.689994
29492;8.305749;1.000175;-0.784218;0.127389;0.491668;1.240866;-0.672852;-0.129395;0.459961;0.106629;0.702496;-0.115361;0.694134
29493;8.608746;0.682499;-0.573793;0.391173;0.420174;1.084137;-0.675293;-0.115967;0.453613;0.098480;0.699331;-0.119152;0.697883
29494;8.776873;0.630140;-0.477694;0.800731;0.380870;0.884342;-0.671875;-0.093506;0.447266;0.089068;0.696854;-0.119423;0.701570
29495;8.733718;0.942115;-0.595875;1.190267;0.354393;0.705827;-0.679199;-0.083984;0.450928;0.078368;0.694917;-0.116361;0.705272
29496;8.555969;1.394348;-0.625258;1.359805;0.293632;0.581159;-0.683105;-0.066162;0.456787;0.067379;0.693468;-0.111620;0.708593
29497;8.487906;2.091335;-0.471110;1.347427;0.205327;0.528026;-0.684082;-0.052979;0.435791;0.056663;0.692488;-0.106660;0.711247
29498;8.556520;2.618665;-0.291139;1.184770;0.162441;0.514879;-0.684570;-0.036133;0.446533;0.046972;0.691576;-0.102632;0.713430
29499;8.490412;3.020151;0.124119;0.894512;0.165512;0.514641;-0.689209;-0.026123;0.447754;0.038914;0.690489;-0.100283;0.715300
29500;8.414663;2.950433;0.377515;0.467405;0.160536;0.518621;-0.690674;-0.016357;0.440674;0.033298;0.689253;-0.100501;0.716743
29501;8.553711;2.526464;0.475765;-0.060138;0.135569;0.467367;-0.691162;-0.007324;0.443115;0.031002;0.688035;-0.103579;0.717578
29502;9.127657;1.322244;0.573854;-0.542215;0.059582;0.335861;-0.698486;-0.004639;0.443115;0.032153;0.687256;-0.108776;0.717505
29503;9.937766;-0.138087;0.360728;-0.880269;-0.076441;0.153412;-0.698486;-0.011719;0.443604;0.036194;0.687329;-0.114973;0.716275
29504;10.584686;-1.288720;0.263569;-0.891507;-0.210789;-0.044237;-0.686279;-0.013916;0.447266;0.041369;0.688347;-0.120149;0.714164
29505;11.149726;-1.599711;0.293414;-0.552334;-0.315776;-0.220263;-0.686523;-0.027588;0.444336;0.045483;0.690273;-0.122292;0.711687
29506;12.155098;-0.868650;-0.051940;-0.117248;-0.395929;-0.403919;-0.684814;-0.028564;0.449219;0.048177;0.692985;-0.120873;0.709113
29507;13.379774;0.149600;-0.614767;0.006057;-0.479015;-0.519483;-0.676514;-0.037842;0.456299;0.050721;0.696334;-0.118068;0.706120
29508;14.223468;0.787931;-1.039564;-0.499411;-0.615069;-0.539829;-0.683105;-0.046143;0.466064;0.056201;0.700265;-0.118176;0.701786
29509;13.961801;1.023722;-1.119348;-1.357217;-0.789660;-0.486564;-0.665283;-0.060791;0.469482;0.066193;0.704665;-0.123679;0.695536
29510;13.007560;1.268788;-1.096773;-2.116775;-0.904995;-0.417343;-0.660400;-0.080566;0.475586;0.080089;0.709051;-0.134001;0.687660
29511;11.524312;1.091750;-0.665734;-2.599721;-0.809676;-0.439129;-0.652100;-0.107422;0.482910;0.097030;0.712263;-0.146835;0.679490
29512;9.870161;0.447616;-0.165212;-2.712216;-0.606275;-0.488502;-0.656738;-0.136719;0.483643;0.115117;0.713913;-0.159764;0.671976
29513;8.625432;-0.074166;-0.025079;-2.457584;-0.395293;-0.533854;-0.652100;-0.167969;0.479492;0.132207;0.714301;-0.170747;0.665688
29514;8.092816;-0.224689;-0.269531;-2.085913;-0.180192;-0.592282;-0.646484;-0.190430;0.482666;0.147726;0.713693;-0.179057;0.660876
