// Start Time: Unknown
// Update Rate: 60.0Hz
// Filter Profile: human (46.1)
// Firmware Version: 4.4.0
PacketCounter;Acc_X;Acc_Y;Acc_Z;Gyr_X;Gyr_Y;Gyr_Z;Mag_X;Mag_Y;Mag_Z;Quat_q0;Quat_q1;Quat_q2;Quat_q3
28597;8.247510;-0.385083;-5.327506;0.006235;0.055724;-0.011428;-0.819580;-0.237061;0.038330;0.455259;0.229625;-0.847678;0.146470
28598;8.237017;-0.381521;-5.299961;0.008488;0.054152;-0.009209;-0.818848;-0.234375;0.044678;0.455637;0.229656;-0.847445;0.146599
28599;8.213992;-0.334024;-5.299307;0.013948;0.048602;-0.014077;-0.824707;-0.234131;0.046143;0.455962;0.229749;-0.847220;0.146739
28600;8.213468;-0.375489;-5.312309;0.017218;0.040020;-0.012854;-0.820801;-0.237793;0.050781;0.456227;0.229856;-0.847023;0.146887
28601;8.231365;-0.371169;-5.275005;0.021081;0.029074;-0.015551;-0.820068;-0.221924;0.037842;0.456411;0.230011;-0.846857;0.147032
28602;8.277065;-0.305271;-5.279047;0.023780;0.026686;-0.018225;-0.822754;-0.230469;0.046143;0.456576;0.230198;-0.846691;0.147180
28603;8.282533;-0.255697;-5.236678;0.017947;0.024563;-0.023846;-0.819824;-0.234131;0.042725;0.456746;0.230406;-0.846528;0.147260
28604;8.271473;-0.264653;-5.285204;0.013191;0.025900;-0.020668;-0.821533;-0.224609;0.043457;0.456936;0.230575;-0.846370;0.147315
28605;8.238290;-0.299431;-5.261109;0.010026;0.023333;-0.017117;-0.822754;-0.239502;0.049316;0.457112;0.230714;-0.846231;0.147351
28606;8.251251;-0.281892;-5.251751;0.008586;0.022164;-0.009960;-0.830811;-0.239258;0.042725;0.457275;0.230800;-0.846112;0.147398
28607;8.360503;-0.287341;-5.282562;0.007289;0.028747;-0.004369;-0.816895;-0.237549;0.033936;0.457483;0.230836;-0.845977;0.147464
28608;8.374480;-0.270951;-5.271474;0.004314;0.041082;-0.001405;-0.817871;-0.234131;0.042236;0.457786;0.230828;-0.845803;0.147540
28609;8.316979;-0.266725;-5.270445;0.001709;0.055521;-0.007355;-0.820557;-0.236084;0.043213;0.458209;0.230838;-0.845561;0.147596
28610;8.356029;-0.338560;-5.301137;0.005282;0.062446;-0.009248;-0.819824;-0.237305;0.038330;0.458680;0.230870;-0.845283;0.147676
28611;8.360757;-0.447023;-5.277336;0.019395;0.070945;-0.009168;-0.827393;-0.232422;0.037598;0.459185;0.230946;-0.844954;0.147871
28612;8.351828;-0.445854;-5.246779;0.037274;0.080526;-0.002945;-0.822266;-0.236084;0.033203;0.459713;0.231031;-0.844578;0.148242
28613;8.307525;-0.367616;-5.222106;0.050694;0.089616;-0.008727;-0.824463;-0.234131;0.038574;0.460286;0.231190;-0.844140;0.148713
28614;8.218542;-0.348538;-5.235030;0.053953;0.090999;-0.024616;-0.825928;-0.236816;0.028564;0.460880;0.231472;-0.843662;0.149148
28615;8.134096;-0.346778;-5.242530;0.057332;0.073604;-0.037434;-0.815186;-0.238525;0.036865;0.461359;0.231881;-0.843222;0.149522
28616;8.102273;-0.376694;-5.226749;0.056778;0.047487;-0.040706;-0.821045;-0.241699;0.033447;0.461635;0.232342;-0.842890;0.149822
28617;8.027658;-0.369606;-5.208995;0.059517;0.012017;-0.042186;-0.821777;-0.242188;0.034912;0.461652;0.232874;-0.842691;0.150063
28618;7.974337;-0.343152;-5.223254;0.058444;-0.031568;-0.036653;-0.814209;-0.243896;0.035156;0.461339;0.233420;-0.842681;0.150231
28619;8.142103;-0.303379;-5.185100;0.055666;-0.062845;-0.030260;-0.819336;-0.228760;0.040771;0.460786;0.233948;-0.842818;0.150339
28620;8.344631;-0.289157;-5.215167;0.048293;-0.068881;-0.022667;-0.828125;-0.235352;0.040283;0.460178;0.234387;-0.843016;0.150411
28621;8.220905;-0.248566;-5.269779;0.037778;-0.061030;-0.013154;-0.824463;-0.235596;0.038818;0.459638;0.234731;-0.843207;0.150450
28622;8.131526;-0.279141;-5.265159;0.022781;-0.084804;-0.002573;-0.817627;-0.236816;0.044189;0.458952;0.234973;-0.843528;0.150371
28623;8.673737;-0.287649;-5.241459;0.010745;-0.064536;0.004453;-0.817383;-0.233643;0.046875;0.458420;0.235095;-0.843803;0.150263
28624;8.501516;-0.342636;-5.296850;-0.004011;-0.018571;0.014710;-0.829590;-0.230469;0.040771;0.458246;0.235020;-0.843932;0.150181
28625;8.270943;-0.338434;-5.296468;-0.008643;-0.010554;0.018035;-0.822754;-0.232178;0.042969;0.458132;0.234898;-0.844042;0.150102
28626;8.273569;-0.352142;-5.271646;-0.016389;-0.011663;0.021428;-0.830078;-0.236816;0.038574;0.458030;0.234718;-0.844170;0.149980
28627;8.384048;-0.316130;-5.288037;-0.030097;-0.004107;0.015626;-0.827393;-0.230713;0.047119;0.458018;0.234547;-0.844263;0.149760
28628;8.420979;-0.339164;-5.287841;-0.038244;0.008707;0.013478;-0.816406;-0.229004;0.043701;0.458094;0.234323;-0.844331;0.149489
28629;8.455644;-0.402914;-5.271321;-0.043319;0.030352;0.012544;-0.817139;-0.234619;0.039795;0.458374;0.234010;-0.844311;0.149237
28630;8.340748;-0.412882;-5.270992;-0.040953;0.050262;0.017635;-0.825928;-0.237793;0.037354;0.458803;0.233670;-0.844201;0.149070
28631;8.305208;-0.375126;-5.257535;-0.038672;0.056930;0.019058;-0.827148;-0.236572;0.036865;0.459266;0.233357;-0.844059;0.148942
28632;8.333173;-0.347293;-5.257234;-0.042270;0.055356;0.012131;-0.814697;-0.232178;0.045898;0.459728;0.233077;-0.843916;0.148764
28633;8.295206;-0.409984;-5.209117;-0.039308;0.054157;0.004379;-0.830322;-0.235107;0.036865;0.460156;0.232822;-0.843788;0.148567
28634;7.998295;-0.474945;-5.226194;-0.031224;0.034179;0.005560;-0.819092;-0.237793;0.036377;0.460443;0.232656;-0.843705;0.148408
28635;8.226383;-0.413263;-5.193780;-0.020248;0.001691;0.019188;-0.822998;-0.232422;0.034424;0.460470;0.232460;-0.843760;0.148320
28636;8.371782;-0.335355;-5.209040;-0.015116;0.001202;0.024251;-0.830566;-0.238281;0.036621;0.460471;0.232215;-0.843830;0.148303
28637;8.337031;-0.265805;-5.236194;-0.021831;-0.001133;0.030652;-0.818359;-0.236328;0.035400;0.460452;0.231971;-0.843917;0.148248
28638;8.218341;-0.278527;-5.209821;-0.035167;-0.008844;0.033376;-0.820068;-0.235352;0.040527;0.460426;0.231625;-0.844054;0.148089
28639;8.169967;-0.333386;-5.230971;-0.041916;-0.026258;0.038330;-0.821533;-0.226807;0.036865;0.460249;0.231256;-0.844292;0.147859
28640;8.265451;-0.363188;-5.229304;-0.044134;-0.036133;0.042167;-0.820801;-0.231445;0.035156;0.460010;0.230786;-0.844592;0.147629
28641;8.197364;-0.409601;-5.247238;-0.037230;-0.046491;0.041545;-0.827393;-0.234619;0.032959;0.459707;0.230399;-0.844899;0.147417
28642;8.294954;-0.399132;-5.262241;-0.033949;-0.057219;0.046320;-0.825195;-0.229736;0.039307;0.459329;0.230039;-0.845236;0.147227
28643;8.356203;-0.426360;-5.290207;-0.026851;-0.054051;0.048127;-0.826416;-0.224121;0.039062;0.458912;0.229661;-0.845585;0.147108
28644;8.339985;-0.386312;-5.291049;-0.024818;-0.044298;0.047619;-0.834961;-0.218262;0.041016;0.458561;0.229228;-0.845906;0.147039
28645;8.362891;-0.376695;-5.310039;-0.027234;-0.031398;0.042646;-0.824463;-0.224121;0.042969;0.458284;0.228766;-0.846190;0.146983
28646;8.355266;-0.361526;-5.352687;-0.033247;-0.012015;0.045340;-0.823975;-0.224609;0.038330;0.458162;0.228299;-0.846396;0.146905
28647;8.188724;-0.367723;-5.332191;-0.038718;-0.002355;0.058495;-0.827148;-0.239258;0.034912;0.458145;0.227697;-0.846577;0.146850
28648;8.097967;-0.375460;-5.306148;-0.042322;-0.013097;0.068187;-0.822266;-0.221924;0.043701;0.458091;0.227181;-0.846763;0.146742
28649;8.110107;-0.377513;-5.309075;-0.050328;-0.022832;0.076930;-0.831299;-0.228271;0.045410;0.457870;0.226441;-0.847099;0.146637
28650;8.180120;-0.432770;-5.313764;-0.050431;-0.032735;0.081986;-0.826904;-0.219727;0.037598;0.457554;0.225777;-0.847467;0.146523
28651;8.281071;-0.432927;-5.313318;-0.057293;-0.029487;0.081646;-0.830322;-0.215088;0.040771;0.457346;0.224948;-0.847825;0.146377
28652;8.344466;-0.462693;-5.337591;-0.054831;-0.019774;0.075777;-0.819092;-0.218506;0.040283;0.457172;0.224128;-0.848155;0.146263
28653;8.289177;-0.555474;-5.326034;-0.053987;-0.012990;0.067277;-0.837402;-0.220947;0.031738;0.457082;0.223418;-0.848418;0.146106
28654;8.098151;-0.586686;-5.299512;-0.039315;-0.017871;0.052856;-0.822510;-0.219727;0.039062;0.457020;0.222851;-0.848619;0.146001
28655;7.938071;-0.568044;-5.321689;-0.028802;-0.049071;0.037082;-0.826904;-0.223145;0.045654;0.456672;0.222520;-0.848920;0.145846
28656;7.960474;-0.562792;-5.298997;-0.016814;-0.092414;0.022399;-0.824951;-0.220459;0.045898;0.455939;0.222481;-0.849358;0.145645
28657;8.131667;-0.566136;-5.356048;-0.009961;-0.123502;0.012785;-0.832031;-0.218018;0.046143;0.454989;0.222533;-0.849895;0.145406
28658;8.261841;-0.471015;-5.396231;-0.001869;-0.132855;0.008237;-0.832520;-0.222656;0.043457;0.453966;0.222606;-0.850456;0.145211
28659;8.326200;-0.472727;-5.409062;-0.005772;-0.123617;0.001175;-0.823730;-0.220947;0.048584;0.453085;0.222743;-0.850934;0.144955
28660;8.333198;-0.481345;-5.431753;-0.001500;-0.102922;-0.004842;-0.828125;-0.214844;0.045898;0.452319;0.222923;-0.851330;0.144742
28661;8.302420;-0.513376;-5.457008;0.002130;-0.081566;-0.002631;-0.821045;-0.220947;0.048096;0.451737;0.222941;-0.851654;0.144626
28662;8.270471;-0.533397;-5.472693;0.010408;-0.061880;-0.002350;-0.821533;-0.213379;0.049316;0.451282;0.223083;-0.851867;0.144574
28663;8.257755;-0.502837;-5.479707;0.019842;-0.043922;0.000150;-0.826660;-0.219482;0.052246;0.450920;0.223095;-0.852040;0.144664
28664;8.224142;-0.505556;-5.496638;0.026470;-0.027161;-0.002207;-0.822266;-0.218262;0.050537;0.450639;0.223241;-0.852125;0.144815
28665;8.171922;-0.486308;-5.497597;0.026611;-0.010408;-0.004958;-0.823486;-0.223877;0.048828;0.450514;0.223359;-0.852132;0.144980
28666;8.149804;-0.520983;-5.477864;0.036496;-0.003335;-0.004391;-0.830322;-0.211914;0.051270;0.450452;0.223581;-0.852068;0.145203
28667;8.126609;-0.549914;-5.469808;0.038140;0.008893;-0.004263;-0.829834;-0.214844;0.047119;0.450419;0.223579;-0.852030;0.145533
28668;8.157190;-0.552368;-5.488307;0.043905;0.015276;-0.005694;-0.826416;-0.209473;0.057373;0.450486;0.223616;-0.851925;0.145884
28669;8.138768;-0.533757;-5.471827;0.048607;0.021529;-0.007113;-0.827881;-0.218506;0.052490;0.450431;0.223696;-0.851856;0.146330
28670;8.149897;-0.575810;-5.487856;0.053494;0.025153;-0.005808;-0.823242;-0.221924;0.049316;0.450476;0.223884;-0.851709;0.146764
28671;8.215269;-0.591430;-5.498351;0.057281;0.029725;-0.006246;-0.825439;-0.218506;0.053955;0.450600;0.224134;-0.851502;0.147197
28672;8.193049;-0.554794;-5.486667;0.060409;0.031972;-0.008540;-0.831787;-0.221680;0.046875;0.450655;0.224388;-0.851321;0.147689
28673;8.114971;-0.531349;-5.440572;0.051987;0.031826;-0.012235;-0.826660;-0.217041;0.044434;0.450835;0.224588;-0.851106;0.148076
28674;8.179592;-0.538652;-5.431066;0.045069;0.028538;-0.016056;-0.828369;-0.212402;0.045166;0.451039;0.224709;-0.850910;0.148400
28675;8.164182;-0.530930;-5.452817;0.037044;0.026189;-0.021619;-0.832031;-0.218506;0.045166;0.451223;0.224758;-0.850751;0.148673
28676;8.161577;-0.504857;-5.403226;0.029570;0.026640;-0.024547;-0.832764;-0.220703;0.045410;0.451432;0.224886;-0.850575;0.148854
28677;8.201467;-0.527908;-5.367109;0.020727;0.028680;-0.026382;-0.823730;-0.219727;0.053955;0.451669;0.225023;-0.850395;0.148960
28678;8.174120;-0.527043;-5.375104;0.015677;0.032847;-0.023868;-0.820068;-0.214111;0.052490;0.451801;0.225266;-0.850238;0.149086
28679;8.191140;-0.575683;-5.330606;0.016165;0.036427;-0.021725;-0.829590;-0.216309;0.055420;0.451964;0.225398;-0.850086;0.149256
28680;8.170557;-0.540073;-5.338322;0.017866;0.038594;-0.018620;-0.831299;-0.218262;0.037354;0.452084;0.225525;-0.849951;0.149471
28681;8.175605;-0.491684;-5.392892;0.013028;0.033886;-0.018168;-0.827637;-0.218994;0.048096;0.452473;0.225431;-0.849756;0.149548
28682;8.166226;-0.499461;-5.375125;0.015815;0.026893;-0.029938;-0.828125;-0.220947;0.042725;0.452638;0.225622;-0.849602;0.149635
28683;8.203174;-0.453142;-5.373148;0.011082;0.020038;-0.043375;-0.826904;-0.211914;0.045898;0.452867;0.225853;-0.849427;0.149587
28684;8.265293;-0.507206;-5.390323;0.012345;0.021366;-0.048480;-0.822754;-0.223145;0.055420;0.453033;0.226023;-0.849289;0.149612
28685;8.243614;-0.528398;-5.412502;0.020069;0.022428;-0.051903;-0.828369;-0.223877;0.051025;0.453054;0.226596;-0.849116;0.149662
28686;8.171439;-0.521455;-5.348821;0.029241;0.021131;-0.055927;-0.829346;-0.220215;0.041260;0.453126;0.227123;-0.848923;0.149737
28687;8.130943;-0.527226;-5.345159;0.036185;0.013488;-0.062656;-0.816406;-0.227051;0.047607;0.453295;0.227517;-0.848717;0.149797
28688;8.092901;-0.430310;-5.377095;0.040604;0.003658;-0.075808;-0.816162;-0.219482;0.040527;0.453306;0.228325;-0.848493;0.149805
28689;8.065238;-0.314796;-5.372069;0.030223;-0.011769;-0.084276;-0.820557;-0.216797;0.052734;0.453346;0.228913;-0.848333;0.149688
28690;8.063425;-0.305626;-5.407100;0.013764;-0.023966;-0.089741;-0.825195;-0.220215;0.046875;0.453120;0.229564;-0.848310;0.149506
28691;8.214002;-0.356087;-5.412611;0.006639;-0.027720;-0.088972;-0.817627;-0.227783;0.044922;0.452995;0.230098;-0.848283;0.149217
28692;8.331749;-0.395108;-5.423504;0.004906;-0.012360;-0.078033;-0.824951;-0.228516;0.050293;0.453021;0.230680;-0.848163;0.148925
28693;8.378301;-0.332486;-5.438736;0.002472;0.008582;-0.068465;-0.832031;-0.226074;0.044189;0.453096;0.231169;-0.848024;0.148733
28694;8.314029;-0.300018;-5.415499;-0.005125;0.028941;-0.062160;-0.824219;-0.223389;0.041016;0.453421;0.231347;-0.847835;0.148537
28695;8.244676;-0.303896;-5.422291;-0.012350;0.038578;-0.055641;-0.820312;-0.230957;0.044189;0.453864;0.231398;-0.847621;0.148328
28696;8.210513;-0.264868;-5.396869;-0.019194;0.043280;-0.044906;-0.826660;-0.231934;0.042480;0.454285;0.231565;-0.847390;0.148097
28697;8.155395;-0.320838;-5.395878;-0.020958;0.036699;-0.037632;-0.823975;-0.228760;0.041260;0.454672;0.231615;-0.847210;0.147862
28698;8.160550;-0.320994;-5.378203;-0.016697;0.031023;-0.025041;-0.825195;-0.230957;0.042236;0.454997;0.231552;-0.847079;0.147712
28699;8.108199;-0.338688;-5.360575;-0.004529;0.016992;-0.015355;-0.811768;-0.232910;0.048096;0.455163;0.231532;-0.847005;0.147655
28700;8.150105;-0.373069;-5.332798;0.002891;0.008099;-0.010326;-0.831299;-0.234375;0.046387;0.455139;0.231775;-0.846948;0.147677
28701;8.219252;-0.348000;-5.346888;0.020924;0.000034;-0.002862;-0.830811;-0.236816;0.047607;0.455049;0.231859;-0.846947;0.147828
28702;8.275764;-0.334699;-5.348054;0.026204;-0.000920;0.001392;-0.821289;-0.233154;0.051758;0.454923;0.231997;-0.846943;0.148020
28703;8.242243;-0.326760;-5.354006;0.034188;0.001524;0.006979;-0.813965;-0.228516;0.048340;0.454718;0.232198;-0.846943;0.148334
28704;8.196750;-0.275584;-5.354105;0.035526;-0.002788;0.011968;-0.829346;-0.219971;0.041016;0.454532;0.232290;-0.846960;0.148664
28705;8.148973;-0.218622;-5.367987;0.029265;-0.006255;0.014784;-0.817383;-0.235596;0.042236;0.454445;0.231962;-0.847043;0.148970
28706;8.165646;-0.285637;-5.335668;0.014662;-0.014242;0.020936;-0.828613;-0.232422;0.043457;0.454332;0.231952;-0.847087;0.149077
28707;8.214723;-0.364773;-5.330634;0.016755;-0.016686;0.026990;-0.812744;-0.236816;0.045654;0.454166;0.231788;-0.847190;0.149252
28708;8.214886;-0.322038;-5.359903;0.012376;-0.015413;0.024781;-0.817383;-0.233154;0.042969;0.453998;0.231859;-0.847243;0.149357
28709;8.174475;-0.295972;-5.375208;-0.001467;-0.019091;0.027198;-0.829590;-0.233643;0.040771;0.453871;0.231724;-0.847344;0.149375
28710;8.151915;-0.330835;-5.324725;-0.012749;-0.023617;0.025969;-0.828125;-0.222900;0.052002;0.453775;0.231461;-0.847481;0.149296
28711;8.172499;-0.422858;-5.372621;-0.015227;-0.023538;0.030107;-0.826416;-0.228760;0.044434;0.453475;0.231138;-0.847723;0.149337
28712;8.244330;-0.419661;-5.383810;-0.014776;-0.019948;0.032242;-0.823242;-0.222900;0.045898;0.453342;0.230813;-0.847887;0.149310
28713;8.313590;-0.403497;-5.387646;-0.013641;-0.008857;0.025342;-0.823242;-0.229492;0.045654;0.453263;0.230472;-0.848020;0.149323
28714;8.342260;-0.397084;-5.355919;-0.013991;0.005658;0.017278;-0.817871;-0.229492;0.048584;0.453316;0.230290;-0.848048;0.149285
28715;8.322192;-0.430295;-5.333467;-0.019279;0.021696;0.014457;-0.825195;-0.228027;0.047119;0.453447;0.230170;-0.848019;0.149239
28716;8.214323;-0.473537;-5.333785;-0.011201;0.028223;0.010920;-0.825928;-0.224365;0.043701;0.453629;0.230011;-0.847961;0.149260
28717;8.231549;-0.470299;-5.297496;-0.002836;0.029224;0.014149;-0.825684;-0.222412;0.049805;0.453842;0.229754;-0.847898;0.149362
28718;8.226783;-0.393087;-5.353988;0.000229;0.025402;0.009133;-0.822998;-0.228027;0.048096;0.453918;0.229612;-0.847871;0.149504
28719;8.210700;-0.385167;-5.377058;-0.005925;0.018124;0.002367;-0.831787;-0.228516;0.047363;0.453997;0.229602;-0.847829;0.149516
28720;8.146142;-0.360700;-5.322070;-0.013400;0.009222;0.001980;-0.825439;-0.224365;0.045898;0.454037;0.229531;-0.847836;0.149464
28721;8.214012;-0.328191;-5.316820;-0.020952;-0.001343;0.005902;-0.820557;-0.231201;0.047119;0.454028;0.229361;-0.847906;0.149358
28722;8.234423;-0.349589;-5.330298;-0.023801;-0.002276;0.017189;-0.821777;-0.227051;0.044678;0.453997;0.229270;-0.847969;0.149233
28723;8.219932;-0.353829;-5.330466;-0.030905;-0.002400;0.025484;-0.821533;-0.228027;0.049805;0.454002;0.228983;-0.848067;0.149099
28724;8.163823;-0.376684;-5.349920;-0.032476;-0.011298;0.034225;-0.819092;-0.217285;0.053955;0.453855;0.228728;-0.848235;0.148987
28725;8.106644;-0.399765;-5.370937;-0.032508;-0.025302;0.031014;-0.823242;-0.226318;0.040039;0.453539;0.228368;-0.848517;0.148891
28726;8.133139;-0.453988;-5.355536;-0.028327;-0.037977;0.027262;-0.832764;-0.213379;0.047852;0.453365;0.228071;-0.848725;0.148691
28727;8.170315;-0.498996;-5.387802;-0.014790;-0.046315;0.021441;-0.819092;-0.223145;0.054688;0.452977;0.227678;-0.849045;0.148654
28728;8.211743;-0.502030;-5.401585;-0.004425;-0.045476;0.011826;-0.828369;-0.217773;0.052490;0.452505;0.227737;-0.849286;0.148619
28729;8.207962;-0.503269;-5.407213;0.009195;-0.037075;0.003144;-0.834717;-0.219971;0.048340;0.452118;0.227708;-0.849489;0.148682
28730;8.168492;-0.487823;-5.464051;0.025863;-0.037379;-0.000975;-0.829346;-0.233887;0.053223;0.451778;0.227733;-0.849638;0.148827
28731;8.161015;-0.470546;-5.442433;0.029579;-0.030641;-0.004944;-0.828613;-0.227539;0.046875;0.451435;0.228140;-0.849689;0.148952
28732;8.240887;-0.498902;-5.453886;0.039587;-0.023971;-0.005179;-0.828369;-0.232422;0.045898;0.451219;0.228377;-0.849705;0.149154
28733;8.249917;-0.424410;-5.437663;0.044299;-0.009472;-0.007416;-0.824707;-0.223389;0.052002;0.451125;0.228706;-0.849626;0.149386
28734;8.186529;-0.362552;-5.463829;0.037555;0.000714;-0.008815;-0.825928;-0.219727;0.055420;0.451022;0.228905;-0.849583;0.149633
28735;8.157413;-0.365170;-5.442715;0.028955;0.007533;-0.008227;-0.823242;-0.226318;0.041992;0.450931;0.229016;-0.849561;0.149861
28736;8.173697;-0.369395;-5.461237;0.018380;0.011460;-0.004868;-0.832275;-0.221436;0.051025;0.451091;0.229062;-0.849447;0.149958
28737;8.222016;-0.432605;-5.445906;0.009118;0.018997;0.003943;-0.819824;-0.215576;0.046387;0.451165;0.228974;-0.849405;0.150107
28738;8.167290;-0.449145;-5.441334;0.006837;0.024687;0.010024;-0.826416;-0.223145;0.046875;0.451340;0.228714;-0.849357;0.150252
28739;8.156107;-0.400261;-5.444984;0.001142;0.026789;0.009406;-0.829102;-0.222412;0.048096;0.451534;0.228568;-0.849276;0.150344
28740;8.197180;-0.431123;-5.428372;-0.008538;0.029048;0.002964;-0.832031;-0.225830;0.044922;0.451746;0.228429;-0.849198;0.150361
28741;8.228379;-0.422803;-5.424829;-0.014471;0.034536;-0.000894;-0.822754;-0.218262;0.052734;0.452055;0.228311;-0.849074;0.150313
28742;8.227801;-0.462829;-5.405932;-0.013987;0.039488;-0.001794;-0.823486;-0.219727;0.047363;0.452273;0.228183;-0.848991;0.150319
28743;8.235356;-0.473931;-5.374002;-0.010353;0.043194;0.001577;-0.828857;-0.228516;0.051514;0.452577;0.228012;-0.848870;0.150345
28744;8.228158;-0.374836;-5.401944;-0.009957;0.049989;-0.001578;-0.819336;-0.226074;0.047119;0.452875;0.228040;-0.848700;0.150367
28745;8.179882;-0.346232;-5.407951;-0.022475;0.047975;-0.005550;-0.832520;-0.218262;0.047363;0.453242;0.227998;-0.848535;0.150258
28746;8.111443;-0.355614;-5.381389;-0.023075;0.034207;-0.001307;-0.823975;-0.223633;0.046143;0.453478;0.227780;-0.848478;0.150199
28747;8.082582;-0.410103;-5.415368;-0.027092;0.025690;0.010297;-0.824219;-0.223145;0.039062;0.453667;0.227584;-0.848448;0.150093
28748;8.158890;-0.403803;-5.387901;-0.019826;0.014807;0.020911;-0.832764;-0.216553;0.040039;0.453843;0.227285;-0.848443;0.150039
28749;8.220720;-0.410101;-5.445979;-0.018610;0.013399;0.021879;-0.830811;-0.221436;0.050049;0.453974;0.226876;-0.848482;0.150044
28750;8.254184;-0.416186;-5.417997;-0.016063;0.020473;0.018711;-0.828369;-0.210693;0.047119;0.454021;0.226683;-0.848503;0.150076
28751;8.274786;-0.486775;-5.400680;-0.008312;0.030851;0.012750;-0.825684;-0.224609;0.036621;0.454160;0.226355;-0.848497;0.150186
28752;8.258394;-0.526416;-5.362039;0.003783;0.042077;0.005478;-0.825195;-0.214600;0.041260;0.454521;0.226250;-0.848315;0.150274
28753;8.237431;-0.548237;-5.361345;0.022354;0.051984;0.001677;-0.828857;-0.216553;0.050293;0.454837;0.226125;-0.848129;0.150557
28754;8.227103;-0.493553;-5.374096;0.033575;0.054969;-0.008113;-0.823486;-0.218018;0.043701;0.455034;0.226238;-0.847927;0.150927
28755;8.220368;-0.451548;-5.392794;0.037618;0.058613;-0.010115;-0.821045;-0.217529;0.036377;0.455341;0.226345;-0.847672;0.151281
28756;8.250804;-0.432998;-5.378595;0.035845;0.057984;-0.014215;-0.830811;-0.221191;0.041016;0.455743;0.226397;-0.847389;0.151573
28757;8.251700;-0.414242;-5.311738;0.030156;0.057657;-0.010069;-0.830811;-0.223145;0.040283;0.456074;0.226497;-0.847131;0.151872
28758;8.216683;-0.378941;-5.330107;0.022249;0.057827;-0.006401;-0.824219;-0.218018;0.037842;0.456419;0.226570;-0.846881;0.152122
28759;8.292215;-0.415128;-5.282529;0.015159;0.060156;-0.002945;-0.831787;-0.215576;0.043945;0.456811;0.226500;-0.846650;0.152335
28760;8.313342;-0.419074;-5.293620;0.007823;0.063439;0.002070;-0.826904;-0.226807;0.032959;0.457135;0.226385;-0.846462;0.152575
28761;8.287656;-0.413593;-5.245172;-0.000114;0.066816;0.000430;-0.825195;-0.221191;0.028076;0.457653;0.226329;-0.846181;0.152667
28762;8.211547;-0.448032;-5.241794;-0.007883;0.062083;-0.003728;-0.825195;-0.217529;0.033691;0.458202;0.226153;-0.845928;0.152679
28763;8.196498;-0.485782;-5.233261;-0.012045;0.052059;-0.003186;-0.818604;-0.220703;0.035400;0.458596;0.225981;-0.845760;0.152684
28764;8.236449;-0.448273;-5.247340;-0.008456;0.042047;-0.004240;-0.832031;-0.224854;0.036377;0.458890;0.225931;-0.845615;0.152675
28765;8.290723;-0.467508;-5.241768;-0.008837;0.036617;-0.004122;-0.829346;-0.226562;0.033447;0.459122;0.225941;-0.845486;0.152676
28766;8.313172;-0.481637;-5.229871;-0.004782;0.038122;-0.002576;-0.828125;-0.220215;0.039795;0.459391;0.225959;-0.845333;0.152694
28767;8.354120;-0.450594;-5.231661;-0.006985;0.039690;-0.004828;-0.824219;-0.218262;0.033936;0.459584;0.225948;-0.845223;0.152732
28768;8.308468;-0.434684;-5.213328;-0.007865;0.039373;-0.006881;-0.832764;-0.223145;0.034668;0.459850;0.225870;-0.845100;0.152732
28769;8.220079;-0.430180;-5.227953;-0.007054;0.034674;-0.009313;-0.828613;-0.219238;0.029541;0.460066;0.225901;-0.844974;0.152733
28770;8.202478;-0.467824;-5.223570;-0.007899;0.020304;-0.002508;-0.833984;-0.223389;0.032715;0.460231;0.225797;-0.844915;0.152712
28771;8.283086;-0.480236;-5.221067;-0.006146;0.013009;0.001136;-0.823730;-0.221436;0.031494;0.460294;0.225777;-0.844885;0.152718
28772;8.360260;-0.480513;-5.212303;0.001948;0.018160;0.000714;-0.828369;-0.221436;0.035400;0.460398;0.225750;-0.844828;0.152762
28773;8.334564;-0.433734;-5.216883;0.001644;0.022026;-0.001746;-0.824951;-0.221924;0.030029;0.460479;0.225767;-0.844767;0.152826
28774;8.271605;-0.416026;-5.214116;-0.002206;0.023552;-0.010652;-0.829590;-0.221924;0.020020;0.460656;0.225797;-0.844667;0.152807
28775;8.246970;-0.428130;-5.230569;-0.007135;0.020659;-0.012498;-0.824463;-0.221680;0.031494;0.460935;0.225748;-0.844541;0.152731
28776;8.302936;-0.459607;-5.233732;-0.004106;0.019113;-0.006917;-0.824219;-0.217285;0.031738;0.461052;0.225758;-0.844478;0.152709
28777;8.353987;-0.472638;-5.210690;0.000269;0.024685;-0.002439;-0.826904;-0.222412;0.033691;0.461185;0.225682;-0.844418;0.152757
28778;8.373229;-0.421050;-5.233780;0.000361;0.031843;-0.001487;-0.829102;-0.216064;0.031494;0.461343;0.225689;-0.844317;0.152825
28779;8.312590;-0.409737;-5.216762;-0.001153;0.030257;-0.007158;-0.825928;-0.221191;0.036133;0.461515;0.225617;-0.844234;0.152872
28780;8.240027;-0.468777;-5.199041;-0.002929;0.026411;-0.005971;-0.827637;-0.220703;0.025391;0.461610;0.225657;-0.844167;0.152898
28781;8.266126;-0.502226;-5.182133;0.004427;0.018856;-0.003885;-0.824707;-0.217529;0.030518;0.461756;0.225629;-0.844085;0.152947
28782;8.347952;-0.460994;-5.186138;0.011889;0.021672;-0.006142;-0.830078;-0.214111;0.026123;0.461848;0.225631;-0.844014;0.153056
28783;8.370310;-0.422263;-5.215955;0.011542;0.027382;-0.010863;-0.829590;-0.220947;0.025635;0.462029;0.225571;-0.843912;0.153165
28784;8.333008;-0.384588;-5.239031;0.004180;0.029144;-0.016945;-0.828857;-0.228271;0.033203;0.462250;0.225633;-0.843770;0.153189
28785;8.235333;-0.347056;-5.223504;-0.003336;0.023450;-0.022706;-0.824707;-0.217529;0.021973;0.462368;0.225891;-0.843646;0.153136
28786;8.268743;-0.348133;-5.194231;-0.014910;0.017755;-0.018982;-0.826172;-0.218994;0.031006;0.462584;0.225821;-0.843575;0.152979
28787;8.357994;-0.389597;-5.190361;-0.017326;0.019938;-0.006371;-0.827393;-0.223145;0.018799;0.462696;0.225746;-0.843550;0.152886
28788;8.405202;-0.443673;-5.185770;-0.014781;0.029301;0.001034;-0.821045;-0.218506;0.023193;0.462997;0.225588;-0.843439;0.152823
28789;8.385481;-0.415453;-5.181882;-0.009912;0.036622;0.009920;-0.827637;-0.221680;0.024170;0.463276;0.225341;-0.843348;0.152842
28790;8.284330;-0.422505;-5.151202;-0.007670;0.039342;0.005118;-0.828857;-0.215576;0.028809;0.463555;0.225201;-0.843225;0.152882
28791;8.230181;-0.492153;-5.171897;0.001671;0.031813;-0.003539;-0.820068;-0.214111;0.025391;0.463709;0.225119;-0.843147;0.152967
28792;8.304207;-0.533683;-5.146887;0.016181;0.025158;-0.010127;-0.830566;-0.227051;0.022705;0.463841;0.225096;-0.843059;0.153083
28793;8.379359;-0.521973;-5.161988;0.031181;0.030028;-0.014113;-0.828369;-0.220947;0.027832;0.464010;0.225337;-0.842861;0.153305
28794;8.416450;-0.480023;-5.157426;0.040384;0.036402;-0.016265;-0.827637;-0.214111;0.016357;0.464146;0.225569;-0.842668;0.153614
28795;8.403215;-0.417783;-5.152886;0.046644;0.042477;-0.021754;-0.822021;-0.224854;0.016357;0.464440;0.225650;-0.842427;0.153927
28796;8.371691;-0.400037;-5.101096;0.042394;0.048785;-0.019557;-0.830322;-0.223877;0.014404;0.464792;0.225858;-0.842127;0.154205
28797;8.344557;-0.396096;-5.120838;0.032475;0.047410;-0.016269;-0.824707;-0.219238;0.014404;0.465154;0.225974;-0.841852;0.154442
28798;8.361950;-0.447614;-5.106451;0.029837;0.045061;-0.007365;-0.826416;-0.223389;0.015869;0.465487;0.225956;-0.841628;0.154685
28799;8.386151;-0.410786;-5.133282;0.026280;0.044233;-0.002780;-0.831787;-0.218018;0.028076;0.465794;0.225970;-0.841411;0.154922
28800;8.386483;-0.399175;-5.120743;0.016840;0.043855;-0.006648;-0.822266;-0.212402;0.018555;0.465970;0.226020;-0.841259;0.155148
28801;8.374026;-0.395657;-5.095393;0.008251;0.040906;-0.016468;-0.826172;-0.225342;0.028320;0.466258;0.225943;-0.841107;0.155217
28802;8.382634;-0.412116;-5.082529;0.001056;0.042169;-0.023373;-0.824951;-0.225342;0.020996;0.466472;0.226170;-0.840922;0.155245
28803;8.398228;-0.453491;-5.082140;-0.002383;0.040863;-0.019572;-0.823242;-0.219971;0.024414;0.466755;0.226285;-0.840736;0.155231
28804;8.408332;-0.475999;-5.055940;0.003480;0.043326;-0.015146;-0.822754;-0.212891;0.020264;0.466994;0.226341;-0.840577;0.155295
28805;8.418584;-0.384321;-5.058096;0.001233;0.044590;-0.016152;-0.822754;-0.220947;0.015137;0.467283;0.226246;-0.840436;0.155328
28806;8.398351;-0.347638;-5.066232;-0.008144;0.043431;-0.019545;-0.821533;-0.223145;0.018311;0.467640;0.226223;-0.840256;0.155262
28807;8.372967;-0.406083;-5.053183;-0.011143;0.039917;-0.017589;-0.822510;-0.215088;0.016113;0.467937;0.226250;-0.840097;0.155188
28808;8.368491;-0.487140;-5.052862;-0.003709;0.036639;-0.010460;-0.827393;-0.219971;0.012451;0.468200;0.226111;-0.839989;0.155182
28809;8.402528;-0.490523;-5.021173;0.003092;0.031014;-0.005177;-0.827637;-0.222900;0.020264;0.468436;0.226013;-0.839874;0.155232
28810;8.452516;-0.382489;-5.037748;0.006145;0.029798;-0.012877;-0.829590;-0.218506;0.018799;0.468579;0.226117;-0.839752;0.155309
28811;8.440891;-0.383951;-5.033933;-0.000181;0.027417;-0.023980;-0.825928;-0.227295;0.012695;0.468741;0.226192;-0.839645;0.155292
28812;8.378815;-0.424738;-5.011251;0.003578;0.023026;-0.023036;-0.826660;-0.221924;0.018555;0.468934;0.226357;-0.839498;0.155265
28813;8.378563;-0.470773;-5.014003;0.011498;0.016774;-0.017240;-0.828857;-0.221680;0.011230;0.468992;0.226493;-0.839417;0.155330
28814;8.369059;-0.371863;-5.047213;0.017666;0.008805;-0.013797;-0.831299;-0.223389;0.016846;0.469052;0.226559;-0.839350;0.155411
28815;8.383874;-0.367431;-5.045888;0.012584;0.005296;-0.013135;-0.829346;-0.219727;0.015869;0.469034;0.226689;-0.839312;0.155483
28816;8.369253;-0.369624;-5.012993;0.013595;-0.000660;-0.015823;-0.831787;-0.226562;0.007324;0.468987;0.226780;-0.839305;0.155528
28817;8.358563;-0.385134;-5.019725;0.010715;-0.004657;-0.014647;-0.826660;-0.227051;0.015625;0.469008;0.226874;-0.839269;0.155523
28818;8.405709;-0.447100;-5.037611;0.019152;-0.007007;-0.007989;-0.823242;-0.224121;0.016602;0.468907;0.227045;-0.839261;0.155622
28819;8.494291;-0.383671;-5.050668;0.024805;-0.003280;-0.003265;-0.825684;-0.215332;0.011475;0.468808;0.227162;-0.839255;0.155781
28820;8.444052;-0.365564;-5.085007;0.025864;0.001609;-0.009561;-0.820312;-0.227783;0.017090;0.468798;0.227134;-0.839245;0.155908
28821;8.418169;-0.385292;-5.025582;0.024367;0.004738;-0.009503;-0.825928;-0.229980;0.016846;0.468765;0.227346;-0.839179;0.156053
28822;8.388905;-0.387713;-5.038596;0.025633;0.003632;-0.009777;-0.824219;-0.226562;0.012695;0.468722;0.227592;-0.839105;0.156217
28823;8.360166;-0.390581;-5.084781;0.022243;-0.001356;-0.013488;-0.824219;-0.220215;0.016113;0.468699;0.227762;-0.839055;0.156308
28824;8.383145;-0.363901;-5.091923;0.017532;-0.007370;-0.013382;-0.819092;-0.228516;0.018555;0.468606;0.227849;-0.839073;0.156361
28825;8.405096;-0.335671;-5.066821;0.012533;-0.007688;-0.018028;-0.825195;-0.224854;0.025391;0.468511;0.228103;-0.839056;0.156369
28826;8.441506;-0.357920;-5.066239;0.006646;-0.005429;-0.016732;-0.827637;-0.234375;0.013916;0.468368;0.228318;-0.839076;0.156377
28827;8.477933;-0.435221;-5.056848;0.008425;0.005307;-0.003692;-0.823975;-0.224121;0.010986;0.468397;0.228485;-0.839001;0.156449
28828;8.439782;-0.460321;-5.062556;0.015234;0.009482;-0.000240;-0.814941;-0.226074;0.019043;0.468468;0.228452;-0.838951;0.156552
28829;8.394492;-0.405051;-5.030604;0.019761;0.012775;-0.006300;-0.823730;-0.227539;0.017822;0.468489;0.228570;-0.838883;0.156680
28830;8.346086;-0.446346;-5.042292;0.023669;0.006839;-0.016393;-0.831787;-0.227295;0.015381;0.468478;0.228801;-0.838803;0.156803
28831;8.338829;-0.474431;-5.021391;0.029624;-0.000165;-0.023419;-0.825928;-0.226074;0.018311;0.468432;0.229091;-0.838725;0.156939
28832;8.391322;-0.500032;-5.006283;0.039805;-0.002903;-0.022907;-0.822266;-0.227295;0.021240;0.468325;0.229412;-0.838660;0.157132
28833;8.447585;-0.425735;-5.059435;0.043772;-0.001654;-0.020046;-0.832275;-0.224609;0.016846;0.468194;0.229760;-0.838594;0.157368
28834;8.435957;-0.327396;-5.062065;0.039267;0.003746;-0.026121;-0.825928;-0.226074;0.017578;0.468151;0.230050;-0.838502;0.157563
28835;8.417633;-0.367420;-5.093369;0.032106;0.004211;-0.020514;-0.822754;-0.229492;0.016113;0.468119;0.230291;-0.838424;0.157720
28836;8.362103;-0.387595;-5.047738;0.023706;-0.000037;-0.018586;-0.825684;-0.227783;0.010498;0.468088;0.230533;-0.838357;0.157815
28837;8.296246;-0.425935;-5.042132;0.022891;-0.009822;-0.008004;-0.831299;-0.219238;0.024414;0.468027;0.230642;-0.838343;0.157914
28838;8.374871;-0.384558;-5.049695;0.022630;-0.015741;-0.008624;-0.829346;-0.225098;0.021729;0.467791;0.230713;-0.838435;0.158020
28839;8.403260;-0.382604;-5.038084;0.015692;-0.016564;-0.015338;-0.828369;-0.224609;0.023926;0.467603;0.230884;-0.838486;0.158055
28840;8.447092;-0.431699;-5.083402;0.012411;-0.013341;-0.019911;-0.822021;-0.228516;0.020508;0.467435;0.231072;-0.838528;0.158056
28841;8.388633;-0.385264;-5.107333;0.008828;-0.010218;-0.021155;-0.830811;-0.227295;0.017090;0.467338;0.231281;-0.838531;0.158019
28842;8.355104;-0.377152;-5.070588;0.006947;-0.014363;-0.018673;-0.829834;-0.230469;0.017334;0.467236;0.231431;-0.838554;0.157979
28843;8.409474;-0.298871;-5.093005;-0.004702;-0.009288;-0.018637;-0.833252;-0.231201;0.022949;0.467192;0.231581;-0.838557;0.157876
28844;8.418354;-0.328429;-5.125745;-0.008535;-0.007037;-0.016052;-0.819336;-0.227295;0.019775;0.467115;0.231745;-0.838572;0.157784
28845;8.362962;-0.347311;-5.114044;-0.015099;-0.004220;-0.008598;-0.810547;-0.228760;0.028320;0.467107;0.231707;-0.838618;0.157618
28846;8.327422;-0.382601;-5.127774;-0.014987;-0.008651;-0.003549;-0.825195;-0.220703;0.024170;0.466996;0.231704;-0.838709;0.157466
28847;8.324171;-0.374342;-5.110198;-0.012143;-0.016540;0.000679;-0.818115;-0.231934;0.021729;0.466842;0.231541;-0.838865;0.157329
28848;8.389390;-0.395439;-5.097424;-0.005430;-0.017677;0.000942;-0.825928;-0.228516;0.023926;0.466694;0.231594;-0.838945;0.157266
28849;8.429112;-0.377171;-5.112103;-0.003962;-0.009198;-0.003257;-0.826904;-0.230957;0.018555;0.466585;0.231628;-0.839004;0.157222
28850;8.388459;-0.395215;-5.132927;0.003112;-0.003065;-0.005426;-0.823975;-0.226074;0.020996;0.466554;0.231711;-0.838997;0.157233
28851;8.328219;-0.398059;-5.127813;0.005716;-0.000994;-0.001021;-0.824219;-0.225342;0.009033;0.466511;0.231684;-0.839024;0.157255
28852;8.307119;-0.432414;-5.140578;0.015772;-0.003229;0.000259;-0.824707;-0.225342;0.017334;0.466536;0.231606;-0.839019;0.157318
28853;8.386497;-0.391739;-5.146852;0.021991;-0.000324;0.000077;-0.817139;-0.222168;0.023682;0.466497;0.231602;-0.839018;0.157451
28854;8.451643;-0.354071;-5.119656;0.023130;0.009884;-0.003071;-0.821533;-0.226318;0.014648;0.466485;0.231585;-0.839004;0.157582
28855;8.425472;-0.364470;-5.150424;0.020409;0.021282;-0.001858;-0.822510;-0.222412;0.019775;0.466630;0.231555;-0.838905;0.157725
28856;8.360615;-0.398806;-5.153956;0.022716;0.026148;0.001822;-0.821289;-0.227539;0.019287;0.466752;0.231473;-0.838825;0.157909
28857;8.338115;-0.422419;-5.156819;0.022121;0.023065;0.012532;-0.822266;-0.226562;0.016357;0.466841;0.231413;-0.838747;0.158146
28858;8.375787;-0.393053;-5.094658;0.017924;0.023824;0.009449;-0.826416;-0.233154;0.019287;0.466971;0.231320;-0.838666;0.158331
28859;8.459097;-0.358947;-5.083450;0.010641;0.031601;0.005956;-0.821045;-0.232910;0.019531;0.467140;0.231365;-0.838524;0.158517
28860;8.470974;-0.391746;-5.076927;0.006297;0.042612;0.001758;-0.832275;-0.226074;0.021240;0.467399;0.231405;-0.838340;0.158668
28861;8.387269;-0.404109;-5.098488;0.003554;0.047900;0.000291;-0.827637;-0.228516;0.022705;0.467674;0.231344;-0.838178;0.158805
28862;8.316952;-0.411216;-5.087133;-0.000535;0.044233;0.002256;-0.825439;-0.224854;0.011963;0.467915;0.231312;-0.838030;0.158920
28863;8.364025;-0.405765;-5.067594;-0.000662;0.034945;0.004922;-0.832764;-0.229736;0.024414;0.468179;0.231132;-0.837922;0.158974
28864;8.474781;-0.355760;-5.068059;-0.003414;0.035178;-0.000988;-0.826172;-0.219727;0.023193;0.468337;0.231175;-0.837805;0.159066
28865;8.490932;-0.404566;-5.021399;-0.007816;0.041186;0.002412;-0.833252;-0.226562;0.016846;0.468561;0.230964;-0.837735;0.159079
28866;8.425353;-0.429971;-5.003315;-0.007521;0.045280;0.005297;-0.827393;-0.228760;0.012451;0.468847;0.230836;-0.837596;0.159154
28867;8.350116;-0.474487;-5.024486;0.005777;0.038769;0.012975;-0.827637;-0.229980;0.008789;0.469088;0.230722;-0.837460;0.159326
28868;8.364723;-0.466192;-4.999903;0.012280;0.030939;0.013152;-0.821045;-0.224365;0.013428;0.469287;0.230651;-0.837329;0.159530
28869;8.406937;-0.450329;-4.975708;0.016745;0.024162;0.010257;-0.821289;-0.227051;0.013672;0.469403;0.230542;-0.837260;0.159706
28870;8.427683;-0.462858;-5.010605;0.021831;0.024459;0.002868;-0.820312;-0.224121;0.020752;0.469516;0.230562;-0.837153;0.159907
28871;8.469530;-0.500575;-4.978045;0.028198;0.028709;-0.000347;-0.820557;-0.220459;0.009766;0.469593;0.230614;-0.837050;0.160148
28872;8.438723;-0.492182;-4.981586;0.033553;0.030215;-0.000794;-0.824951;-0.224365;0.007324;0.469761;0.230552;-0.836928;0.160380
28873;8.438547;-0.483543;-5.003788;0.041223;0.029706;0.000287;-0.828857;-0.223389;0.004395;0.469919;0.230583;-0.836770;0.160696
28874;8.459287;-0.446221;-4.967688;0.037621;0.024882;-0.001356;-0.818604;-0.226807;0.018555;0.470071;0.230589;-0.836631;0.160967
28875;8.483592;-0.421375;-4.937801;0.035094;0.027094;-0.000837;-0.828125;-0.234375;0.017578;0.470132;0.230730;-0.836500;0.161268
28876;8.449541;-0.455680;-4.960064;0.030694;0.026220;0.000390;-0.828613;-0.233887;0.011719;0.470188;0.230988;-0.836333;0.161602
28877;8.433719;-0.449562;-4.950768;0.027339;0.022615;0.005690;-0.824219;-0.220215;0.008301;0.470263;0.231158;-0.836184;0.161909
28878;8.439341;-0.411060;-4.962443;0.024103;0.015283;0.003509;-0.824463;-0.225586;0.013916;0.470335;0.231061;-0.836139;0.162073
28879;8.456397;-0.470436;-4.971087;0.018702;0.007657;0.001305;-0.826416;-0.222168;0.022705;0.470318;0.231105;-0.836107;0.162223
28880;8.414650;-0.488101;-4.925172;0.021275;0.001432;-0.005416;-0.823242;-0.219727;0.009033;0.470192;0.231209;-0.836123;0.162358
28881;8.411531;-0.532121;-4.943377;0.027263;-0.005235;-0.001601;-0.822998;-0.233643;0.008301;0.470118;0.231182;-0.836149;0.162480
28882;8.421332;-0.517221;-4.937948;0.034026;-0.010389;-0.007498;-0.828369;-0.224854;0.015381;0.470002;0.231483;-0.836088;0.162699
28883;8.423115;-0.471851;-4.967478;0.038402;-0.015639;-0.011369;-0.822510;-0.221680;0.012207;0.469791;0.231725;-0.836100;0.162900
28884;8.445011;-0.446603;-4.976429;0.036946;-0.018353;-0.015262;-0.825439;-0.226807;0.009521;0.469606;0.231896;-0.836132;0.163025
28885;8.469489;-0.432349;-4.958738;0.032390;-0.016921;-0.015545;-0.822754;-0.220703;0.011475;0.469458;0.232131;-0.836125;0.163152
28886;8.451550;-0.425442;-4.987801;0.028175;-0.013972;-0.010166;-0.829102;-0.232910;0.011230;0.469326;0.232196;-0.836166;0.163234
28887;8.427313;-0.394148;-5.037629;0.021548;-0.014374;-0.009461;-0.831543;-0.220459;0.015625;0.469193;0.232460;-0.836142;0.163360
28888;8.368396;-0.408831;-5.008445;0.012163;-0.021079;-0.006028;-0.820557;-0.219727;0.010742;0.468997;0.232480;-0.836246;0.163363
28889;8.430369;-0.419002;-5.022244;0.008039;-0.024742;-0.004054;-0.828613;-0.225098;0.018066;0.468836;0.232404;-0.836372;0.163290
28890;8.451266;-0.447065;-5.023626;0.003640;-0.022357;0.003882;-0.827637;-0.219238;0.008789;0.468622;0.232413;-0.836488;0.163296
28891;8.471147;-0.469586;-5.037848;0.004231;-0.016350;0.001133;-0.829590;-0.218994;0.010254;0.468532;0.232268;-0.836589;0.163240
28892;8.453712;-0.466444;-5.020439;0.003623;-0.007139;-0.004921;-0.828369;-0.228271;0.014648;0.468504;0.232160;-0.836647;0.163182
28893;8.453426;-0.465707;-5.020988;0.006831;-0.001241;-0.011752;-0.826660;-0.229980;0.020752;0.468484;0.232289;-0.836620;0.163194
28894;8.430880;-0.436581;-5.022453;0.007634;0.006380;-0.018839;-0.822021;-0.219971;0.015625;0.468479;0.232530;-0.836549;0.163224
28895;8.423603;-0.459146;-5.046776;0.011089;0.008834;-0.012377;-0.821533;-0.226562;0.011230;0.468525;0.232515;-0.836528;0.163223
28896;8.392387;-0.454036;-5.040247;0.015077;0.006482;-0.004939;-0.822998;-0.221436;0.020752;0.468569;0.232545;-0.836481;0.163295
28897;8.423577;-0.454279;-5.057897;0.016645;0.007670;-0.000044;-0.819580;-0.237793;0.011963;0.468535;0.232537;-0.836480;0.163410
28898;8.443705;-0.416463;-5.057691;0.017309;0.009275;0.002285;-0.824707;-0.227051;0.014404;0.468577;0.232712;-0.836372;0.163593
28899;8.424493;-0.401420;-5.031054;0.011862;0.013981;-0.004631;-0.829102;-0.223633;0.018555;0.468649;0.232757;-0.836302;0.163680
28900;8.409948;-0.454095;-5.033848;0.008437;0.012972;-0.002106;-0.831787;-0.227783;0.013672;0.468681;0.232754;-0.836271;0.163755
28901;8.402981;-0.479218;-5.057465;0.012231;0.011877;0.005604;-0.827637;-0.221680;0.017334;0.468719;0.232756;-0.836221;0.163899
28902;8.414802;-0.414375;-5.012495;0.013646;0.010287;0.004574;-0.822998;-0.227051;0.019287;0.468722;0.232689;-0.836215;0.164012
28903;8.440150;-0.394975;-5.004506;0.004744;0.011118;0.004251;-0.824951;-0.220215;0.018066;0.468738;0.232685;-0.836191;0.164092
28904;8.479374;-0.421066;-5.032895;0.000263;0.017909;0.007100;-0.821045;-0.224365;0.021240;0.468816;0.232515;-0.836189;0.164124
28905;8.471700;-0.499439;-5.013693;0.003056;0.023846;0.015641;-0.827637;-0.222656;0.021729;0.468894;0.232379;-0.836158;0.164251
28906;8.409660;-0.492386;-4.999754;0.005808;0.023653;0.021557;-0.822754;-0.217529;0.020996;0.468946;0.232207;-0.836142;0.164426
28907;8.345729;-0.534480;-4.990639;0.010723;0.018672;0.023089;-0.831787;-0.225586;0.014404;0.468965;0.231950;-0.836171;0.164587
28908;8.379595;-0.603113;-4.971436;0.016044;0.008963;0.015610;-0.825684;-0.226074;0.024658;0.468949;0.231904;-0.836153;0.164792
28909;8.471021;-0.603009;-4.993269;0.025637;0.009326;0.007499;-0.832031;-0.217285;0.014893;0.468857;0.232026;-0.836117;0.165060
28910;8.514795;-0.539727;-4.999258;0.027872;0.017160;-0.002917;-0.827148;-0.222656;0.014404;0.468902;0.232006;-0.836062;0.165239
28911;8.521981;-0.505676;-4.997484;0.026397;0.024962;-0.009269;-0.828369;-0.220215;0.010742;0.469018;0.232100;-0.835935;0.165424
28912;8.429747;-0.497153;-4.964407;0.023439;0.028634;-0.006448;-0.820801;-0.222412;0.009277;0.469187;0.232091;-0.835811;0.165580
28913;8.401350;-0.494888;-4.987733;0.019637;0.028325;-0.001106;-0.829590;-0.218506;0.009766;0.469370;0.232043;-0.835693;0.165724
28914;8.387631;-0.548810;-4.988790;0.015740;0.020834;0.003405;-0.825684;-0.220703;0.007812;0.469488;0.231916;-0.835639;0.165839
28915;8.459758;-0.535077;-4.938326;0.012872;0.016071;0.005131;-0.829834;-0.228760;0.019287;0.469593;0.231791;-0.835597;0.165932
28916;8.421361;-0.497307;-5.011681;0.009240;0.013043;0.001224;-0.834229;-0.225342;0.018555;0.469592;0.231923;-0.835530;0.166086
28917;8.349238;-0.509621;-4.992594;0.003383;0.007205;-0.009904;-0.823242;-0.232666;0.008057;0.469579;0.232063;-0.835490;0.166129
28918;8.332445;-0.554782;-5.010453;0.000837;-0.004391;-0.013611;-0.825439;-0.224854;0.008301;0.469581;0.232260;-0.835439;0.166106
28919;8.448357;-0.530681;-5.060948;0.008480;-0.012835;-0.012830;-0.823975;-0.228760;0.008789;0.469509;0.232363;-0.835457;0.166076
28920;8.561890;-0.499723;-5.092005;0.010409;-0.001802;-0.013237;-0.829346;-0.227783;0.016113;0.469507;0.232524;-0.835408;0.166101
28921;8.603658;-0.481344;-5.103343;0.012428;0.016414;-0.012818;-0.817139;-0.222168;0.018799;0.469570;0.232704;-0.835302;0.166203
28922;8.487871;-0.489090;-5.156293;0.018125;0.030333;-0.021369;-0.825195;-0.222656;0.012695;0.469730;0.232825;-0.835164;0.166273
28923;8.452299;-0.508490;-5.204385;0.028980;0.035447;-0.025833;-0.827393;-0.224854;0.013428;0.469941;0.233009;-0.834965;0.166419
28924;8.586918;-0.590439;-5.262227;0.050230;0.034095;-0.037154;-0.819580;-0.224609;0.016602;0.470104;0.233404;-0.834709;0.166688
28925;8.699707;-0.595482;-5.284013;0.078056;0.048503;-0.045988;-0.821289;-0.226318;0.020508;0.470313;0.233935;-0.834355;0.167129
28926;8.710145;-0.614773;-5.267303;0.116763;0.061902;-0.061895;-0.829590;-0.219727;0.008545;0.470527;0.234760;-0.833862;0.167828
28927;8.502853;-0.614750;-5.252163;0.159717;0.067738;-0.086779;-0.819580;-0.229248;0.010986;0.470808;0.235740;-0.833257;0.168671
28928;8.350468;-0.539840;-5.259546;0.201445;0.050840;-0.112289;-0.828613;-0.232666;0.017090;0.470910;0.237227;-0.832564;0.169719
28929;8.158692;-0.391371;-5.237268;0.231890;0.021329;-0.139487;-0.827881;-0.228271;0.013428;0.470728;0.239158;-0.831879;0.170867
28930;8.043103;-0.300607;-5.299164;0.252795;-0.020840;-0.163694;-0.825684;-0.225098;0.015625;0.470279;0.241257;-0.831311;0.171917
28931;8.077441;-0.273445;-5.263818;0.276140;-0.054713;-0.177580;-0.813965;-0.230469;0.019775;0.469564;0.243496;-0.830845;0.172960
28932;8.128379;-0.306556;-5.272420;0.309014;-0.064598;-0.184254;-0.816895;-0.243896;0.019287;0.468716;0.245970;-0.830338;0.174193
28933;8.065156;-0.216448;-5.269121;0.339920;-0.057808;-0.192380;-0.824463;-0.233398;0.024414;0.467861;0.248800;-0.829658;0.175706
28934;7.930276;-0.041255;-5.288974;0.361760;-0.049090;-0.210697;-0.816406;-0.241699;0.024902;0.467024;0.251626;-0.828951;0.177236
28935;7.759392;0.047808;-5.244099;0.367282;-0.044726;-0.236873;-0.814697;-0.241699;0.026367;0.466253;0.254722;-0.828118;0.178733
28936;7.480738;0.040831;-5.161055;0.369196;-0.036638;-0.264980;-0.819580;-0.251709;0.028320;0.465577;0.257943;-0.827200;0.180120
28937;7.592783;0.215495;-5.257738;0.367838;-0.031308;-0.299543;-0.812256;-0.244141;0.025879;0.464973;0.261514;-0.826131;0.181433
28938;8.233253;0.572378;-5.490792;0.328484;-0.001592;-0.340821;-0.815430;-0.246826;0.033691;0.464765;0.264911;-0.824985;0.182251
28939;8.832488;0.930243;-5.673701;0.254022;0.071139;-0.383685;-0.813232;-0.270020;0.033936;0.465227;0.268241;-0.823575;0.182578
28940;9.112257;1.255599;-5.779677;0.147067;0.166624;-0.405936;-0.807373;-0.264160;0.035400;0.466596;0.271480;-0.821771;0.182429
28941;9.011647;1.543574;-5.735963;0.017532;0.259573;-0.390978;-0.803711;-0.275635;0.030273;0.468856;0.273790;-0.819904;0.181579
28942;8.528144;1.520889;-5.463413;-0.108741;0.331345;-0.348684;-0.803711;-0.274414;0.028320;0.471834;0.275299;-0.817986;0.180225
28943;7.657790;1.233745;-5.094190;-0.209973;0.363655;-0.274646;-0.799805;-0.276123;0.017334;0.475128;0.275770;-0.816296;0.178508
28944;6.636898;0.831371;-4.708164;-0.264610;0.335973;-0.162670;-0.805908;-0.282471;0.004639;0.478231;0.275209;-0.815058;0.176739
28945;5.938823;0.398262;-4.688463;-0.283893;0.237087;-0.021009;-0.798828;-0.284424;-0.003418;0.480530;0.273763;-0.814531;0.175169
28946;6.250978;0.111259;-5.098983;-0.282691;0.101527;0.109129;-0.802490;-0.283936;-0.003418;0.481746;0.271620;-0.814825;0.173793
28947;7.638199;-0.230487;-5.776086;-0.267942;-0.021774;0.231016;-0.805176;-0.281738;0.006104;0.481885;0.268932;-0.815855;0.172754
28948;8.236910;-0.814477;-5.663782;-0.232586;-0.031840;0.343432;-0.801514;-0.272705;0.008789;0.481625;0.265769;-0.817103;0.172471
28949;8.706971;-1.284035;-5.693665;-0.144168;0.008249;0.467672;-0.814209;-0.270508;-0.000244;0.481243;0.262004;-0.818357;0.173355
28950;9.259780;-1.695803;-5.907027;-0.038102;0.094399;0.565476;-0.817139;-0.257324;0.003662;0.481111;0.257861;-0.819286;0.175528
28951;9.773065;-1.974044;-6.052542;0.070758;0.206188;0.613963;-0.820557;-0.243652;-0.000977;0.481390;0.253608;-0.819727;0.178868
28952;10.199930;-2.042315;-6.046979;0.161371;0.348976;0.597638;-0.818359;-0.244141;-0.008301;0.482485;0.249485;-0.819438;0.182994
28953;10.316518;-2.060286;-5.968738;0.217931;0.508684;0.525213;-0.821533;-0.233887;-0.009766;0.484665;0.245959;-0.818176;0.187595
28954;10.156794;-1.974673;-5.752121;0.242462;0.663194;0.414399;-0.819580;-0.229004;-0.020508;0.487966;0.243034;-0.816007;0.192238
28955;9.261754;-1.728407;-5.433142;0.227598;0.764369;0.279672;-0.830322;-0.223633;-0.028809;0.492204;0.240768;-0.813136;0.196408
28956;8.106002;-1.461605;-5.194862;0.173947;0.769129;0.144730;-0.826660;-0.223389;-0.044678;0.496754;0.239187;-0.810033;0.199679
28957;6.915670;-1.285579;-4.960152;0.103992;0.659350;0.034971;-0.821533;-0.221436;-0.045654;0.500919;0.238183;-0.807245;0.201755
28958;6.163806;-1.139531;-4.862552;0.039363;0.458656;-0.040081;-0.825439;-0.216797;-0.048096;0.503925;0.237799;-0.805243;0.202719
28959;6.080590;-1.167289;-4.839575;-0.010884;0.226705;-0.071296;-0.821289;-0.226807;-0.054688;0.505491;0.237757;-0.804268;0.202737
28960;6.426095;-1.169055;-4.903083;-0.038710;0.033088;-0.050160;-0.828613;-0.226074;-0.059082;0.505798;0.237913;-0.804131;0.202336
28961;6.956588;-1.206511;-5.023906;-0.052553;-0.095305;-0.001742;-0.823975;-0.225098;-0.054688;0.505207;0.237845;-0.804668;0.201756
28962;7.554951;-1.323451;-5.104137;-0.052890;-0.148499;0.057677;-0.829834;-0.224609;-0.054443;0.504144;0.237473;-0.805552;0.201323
28963;7.972454;-1.320978;-5.162174;-0.048208;-0.130477;0.104648;-0.817383;-0.220459;-0.058838;0.503114;0.236777;-0.806443;0.201155
28964;8.184576;-1.471626;-5.176394;-0.048615;-0.068298;0.141014;-0.825928;-0.222168;-0.049072;0.502521;0.235559;-0.807172;0.201142
28965;8.253006;-1.640461;-5.187227;-0.037802;0.015596;0.156858;-0.825195;-0.219727;-0.045166;0.502345;0.234359;-0.807522;0.201580
28966;8.313866;-1.815470;-5.187590;-0.023021;0.103513;0.152283;-0.828857;-0.219727;-0.052490;0.502707;0.233143;-0.807468;0.202300
28967;8.221781;-1.924690;-5.138627;-0.001541;0.191931;0.134728;-0.823975;-0.220459;-0.057129;0.503686;0.231971;-0.806957;0.203249
28968;8.117743;-2.047085;-5.146597;0.014045;0.260614;0.110970;-0.813965;-0.209229;-0.052002;0.505155;0.230928;-0.806060;0.204347
28969;7.949897;-2.147455;-5.126913;0.040104;0.296509;0.078035;-0.824707;-0.208008;-0.066162;0.506851;0.229972;-0.804991;0.205437
28970;7.803655;-2.220409;-5.064944;0.058605;0.303930;0.046025;-0.826172;-0.211670;-0.061768;0.508667;0.229222;-0.803793;0.206476
28971;7.637969;-2.179692;-4.966897;0.075342;0.282579;0.005854;-0.822998;-0.216309;-0.061523;0.510290;0.229059;-0.802530;0.207561
28972;7.710418;-2.088288;-4.926376;0.075311;0.246890;-0.042647;-0.825928;-0.218994;-0.073730;0.511719;0.229427;-0.801278;0.208474
28973;7.888545;-1.834072;-4.863549;0.051554;0.210855;-0.106143;-0.822021;-0.204346;-0.073486;0.513116;0.230142;-0.800077;0.208862
28974;8.134065;-1.789028;-4.754374;0.013108;0.179879;-0.165514;-0.816406;-0.213135;-0.071533;0.514527;0.230717;-0.799130;0.208383
28975;8.338881;-1.846088;-4.689179;-0.016192;0.158303;-0.201725;-0.818359;-0.213867;-0.078369;0.515862;0.231665;-0.798180;0.207669
28976;8.635246;-1.864585;-4.579754;-0.039025;0.145896;-0.219564;-0.822021;-0.224609;-0.082275;0.517223;0.232561;-0.797307;0.206635
28977;9.042582;-1.798853;-4.546770;-0.062832;0.138512;-0.220717;-0.814941;-0.219238;-0.075439;0.518553;0.233591;-0.796414;0.205579
28978;9.728967;-1.878740;-4.847028;-0.076786;0.133021;-0.220425;-0.811035;-0.227295;-0.079590;0.519848;0.234412;-0.795655;0.204308
28979;11.859163;-2.245779;-6.232608;-0.036609;0.100887;-0.197204;-0.815674;-0.230225;-0.084961;0.520811;0.235430;-0.794948;0.203437
28980;14.189379;-2.201851;-6.665727;0.030582;0.112299;-0.181917;-0.821289;-0.228516;-0.091553;0.521707;0.236598;-0.794103;0.203083
28981;13.036833;-1.932413;-6.480532;0.089675;0.223293;-0.184402;-0.814453;-0.226807;-0.097412;0.523266;0.237684;-0.792723;0.203198
28982;12.503220;-1.695837;-5.845753;0.126884;0.203947;-0.187719;-0.817383;-0.231445;-0.091064;0.524681;0.238805;-0.791405;0.203373
28983;10.397795;-1.441123;-4.540604;0.171279;0.180028;-0.184003;-0.819824;-0.234131;-0.096680;0.525752;0.240323;-0.790087;0.203942
28984;9.522471;-0.909498;-3.782667;0.183306;0.111620;-0.180596;-0.809814;-0.233643;-0.096680;0.526363;0.241943;-0.789058;0.204434
28985;7.601237;-0.384734;-2.796531;0.164891;0.034996;-0.211388;-0.810791;-0.238037;-0.092773;0.526583;0.243720;-0.788361;0.204446
28986;5.756237;0.217071;-2.493066;0.117036;-0.097336;-0.262630;-0.812012;-0.243896;-0.087158;0.526072;0.245960;-0.788191;0.203733
28987;6.714352;0.431556;-3.188427;0.051667;-0.325628;-0.312068;-0.796387;-0.240723;-0.082520;0.524225;0.248758;-0.788987;0.202006
28988;7.674920;0.460322;-3.405699;0.004149;-0.414918;-0.354421;-0.802002;-0.250000;-0.074219;0.522011;0.251538;-0.790232;0.199416
28989;8.014745;0.426283;-3.427220;-0.011501;-0.425608;-0.370657;-0.801758;-0.260010;-0.072266;0.519714;0.254581;-0.791430;0.196786
28990;8.618506;0.450276;-3.548848;0.007335;-0.361773;-0.360653;-0.802734;-0.260010;-0.077881;0.517786;0.257615;-0.792270;0.194525
28991;9.350059;0.790171;-3.755527;0.041683;-0.199574;-0.360042;-0.797119;-0.269287;-0.054688;0.516961;0.260170;-0.792454;0.192561
28992;10.125424;1.057030;-3.996685;0.037370;0.002571;-0.369096;-0.807129;-0.269531;-0.071045;0.517283;0.263006;-0.791587;0.191403
28993;10.333612;1.057217;-3.840006;0.014339;0.223529;-0.350505;-0.801758;-0.272705;-0.069336;0.519242;0.264748;-0.790003;0.190242
28994;10.089589;0.976091;-3.495137;0.003967;0.428027;-0.309586;-0.794678;-0.274902;-0.072021;0.522463;0.265910;-0.787620;0.189683
28995;9.750775;0.753111;-3.263951;0.013562;0.572305;-0.263799;-0.788574;-0.286621;-0.085693;0.526511;0.266606;-0.784674;0.189720
28996;9.355091;0.561771;-3.039459;0.039557;0.647515;-0.191079;-0.785156;-0.279053;-0.092285;0.530899;0.266953;-0.781395;0.190536
28997;8.801432;0.507865;-2.897788;0.073116;0.634611;-0.091777;-0.792236;-0.275391;-0.090088;0.534981;0.266540;-0.778453;0.191736
28998;8.215402;0.568002;-2.811028;0.088446;0.538766;0.006513;-0.789062;-0.283936;-0.104980;0.538136;0.265805;-0.776136;0.193313
28999;7.782725;0.626045;-2.770071;0.077627;0.377786;0.090175;-0.785889;-0.284668;-0.111084;0.540188;0.264814;-0.774647;0.194915
29000;7.645818;0.402888;-2.780561;0.057898;0.187596;0.161099;-0.789795;-0.280518;-0.102295;0.540951;0.263611;-0.774171;0.196316
29001;7.609289;0.117745;-2.856266;0.047432;0.009648;0.217325;-0.784424;-0.277344;-0.107422;0.540379;0.262508;-0.774597;0.197685
29002;7.630539;-0.147152;-2.938898;0.049414;-0.136510;0.253202;-0.798584;-0.273193;-0.105225;0.538874;0.261262;-0.775784;0.198783
29003;7.589694;-0.312101;-3.131325;0.057394;-0.255113;0.270227;-0.795654;-0.266357;-0.101562;0.536536;0.260088;-0.777565;0.199692
29004;7.595035;-0.298811;-3.305513;0.067163;-0.345980;0.261439;-0.801270;-0.269043;-0.094238;0.533620;0.259061;-0.779744;0.200341
29005;7.555943;-0.271951;-3.472536;0.058355;-0.404450;0.231676;-0.800537;-0.267090;-0.097168;0.530322;0.258554;-0.782014;0.200905
29006;7.516763;-0.186637;-3.597176;0.046034;-0.440946;0.185051;-0.788330;-0.260742;-0.090088;0.526981;0.258147;-0.784395;0.200937
29007;7.527874;-0.079407;-3.593679;0.033493;-0.444382;0.131502;-0.796875;-0.254883;-0.085205;0.523753;0.257959;-0.786704;0.200589
29008;7.368176;0.091222;-3.626070;0.008063;-0.443402;0.086065;-0.803955;-0.256348;-0.074219;0.520674;0.257774;-0.789028;0.199714
29009;7.264711;0.302612;-3.906210;-0.034918;-0.459112;0.050692;-0.798340;-0.252197;-0.070801;0.517552;0.257901;-0.791329;0.198560
29010;7.342071;0.468715;-4.046467;-0.086394;-0.510491;0.034223;-0.804932;-0.253174;-0.065674;0.514270;0.257827;-0.793940;0.196749
29011;7.022914;0.472194;-4.100283;-0.146050;-0.558956;0.037248;-0.799561;-0.256104;-0.061523;0.510779;0.257556;-0.796843;0.194450
29012;7.922446;0.444286;-4.604035;-0.185053;-0.631943;0.055155;-0.801758;-0.250244;-0.047119;0.506862;0.257177;-0.800084;0.191876
29013;9.045094;0.229477;-5.134985;-0.202131;-0.669805;0.077882;-0.807373;-0.253174;-0.051025;0.502610;0.256696;-0.803542;0.189235
29014;9.621642;0.213392;-5.436039;-0.197915;-0.678998;0.111046;-0.801270;-0.253174;-0.035400;0.498342;0.255719;-0.807139;0.186520
29015;9.759450;0.220851;-5.544702;-0.190207;-0.668392;0.136178;-0.807129;-0.252197;-0.024902;0.493973;0.254943;-0.810581;0.184264
29016;10.143796;0.031656;-5.790280;-0.171945;-0.652795;0.169635;-0.809082;-0.248047;-0.020020;0.489572;0.254063;-0.813953;0.182353
29017;11.358549;-0.091786;-6.548568;-0.151887;-0.609153;0.187897;-0.818359;-0.242432;-0.009277;0.485425;0.252885;-0.817187;0.180600
29018;13.782570;-0.574499;-8.476636;-0.112287;-0.608912;0.221474;-0.816162;-0.243164;-0.005859;0.481104;0.251593;-0.820442;0.179205
29019;13.874150;-0.658015;-7.777725;-0.091206;-0.501376;0.205016;-0.816895;-0.243164;-0.006104;0.477525;0.250318;-0.823155;0.178118
29020;11.544251;-0.515999;-6.526246;-0.070410;-0.506232;0.195026;-0.807861;-0.229248;0.004150;0.473944;0.249042;-0.825843;0.177026
29021;9.391299;-0.671723;-5.013874;-0.074596;-0.490672;0.170794;-0.815430;-0.229248;0.016846;0.470482;0.247780;-0.828472;0.175744
29022;8.924399;-1.286543;-4.207630;-0.027497;-0.518772;0.183523;-0.816162;-0.231689;0.018311;0.466617;0.246929;-0.831071;0.174973
29023;8.779691;-1.723592;-3.350291;0.053777;-0.414244;0.220547;-0.815430;-0.225586;0.021729;0.463304;0.245902;-0.833202;0.175090
29024;8.596113;-1.737136;-3.813818;0.131134;-0.322894;0.267082;-0.817139;-0.212646;0.020508;0.460426;0.244558;-0.834998;0.176005
29025;8.949405;-1.513170;-4.388601;0.139053;-0.298440;0.285650;-0.812744;-0.218994;0.029541;0.457764;0.242595;-0.836873;0.176759
29026;8.649257;-1.320610;-4.253745;0.080009;-0.275975;0.278154;-0.818848;-0.216309;0.043945;0.455297;0.240955;-0.838532;0.177508
29027;8.520207;-1.316546;-4.277473;0.001440;-0.225296;0.265001;-0.820801;-0.209717;0.041504;0.453222;0.239487;-0.839959;0.178058
29028;8.961088;-1.479571;-4.855568;-0.078660;-0.202936;0.250369;-0.824463;-0.208496;0.044678;0.451564;0.237442;-0.841483;0.177810
29029;9.479765;-1.377247;-5.119799;-0.171397;-0.191264;0.230994;-0.820068;-0.207764;0.044434;0.450191;0.235211;-0.843036;0.176901
29030;9.457058;-1.042868;-4.837982;-0.273828;-0.138998;0.182775;-0.822998;-0.194092;0.036621;0.449472;0.232870;-0.844421;0.175212
29031;9.115909;-0.823980;-4.524018;-0.375909;-0.054331;0.108056;-0.823486;-0.202148;0.035400;0.449780;0.229886;-0.845685;0.172243
29032;8.990543;-0.630367;-4.516451;-0.457404;0.031224;0.020449;-0.826416;-0.203125;0.051514;0.450967;0.227231;-0.846494;0.168651
29033;8.665718;-0.606219;-4.496634;-0.514615;0.104081;-0.061483;-0.821533;-0.202393;0.027100;0.452634;0.225739;-0.846713;0.165054
29034;8.202510;-0.601366;-4.451005;-0.533741;0.143620;-0.124860;-0.821777;-0.198730;0.032715;0.454973;0.223524;-0.846922;0.160497
29035;7.543972;-0.541038;-4.347314;-0.514010;0.146519;-0.166461;-0.811279;-0.202393;0.028076;0.457204;0.222072;-0.846913;0.156163
29036;6.794016;-0.435339;-4.266448;-0.483629;0.106710;-0.189601;-0.806885;-0.206055;0.025879;0.459101;0.221109;-0.846900;0.151980
29037;6.228077;-0.306581;-4.136890;-0.442269;0.031236;-0.187078;-0.829590;-0.209229;0.013184;0.460352;0.220520;-0.847071;0.148048
29038;5.911525;-0.271353;-4.174647;-0.392501;-0.057043;-0.165583;-0.822510;-0.210938;0.021729;0.461050;0.219080;-0.847803;0.143764
29039;5.853861;-0.258335;-4.304439;-0.343848;-0.143166;-0.127126;-0.811523;-0.221680;0.023193;0.460851;0.218284;-0.848711;0.140207
29040;5.954215;-0.341453;-4.467601;-0.287196;-0.210477;-0.074987;-0.823486;-0.199219;0.019287;0.459976;0.217769;-0.849782;0.137365
29041;6.059681;-0.469463;-4.590435;-0.228022;-0.251104;-0.009220;-0.818604;-0.211182;0.027100;0.458699;0.216274;-0.851297;0.134591
29042;6.199256;-0.581925;-4.678587;-0.157868;-0.272187;0.050386;-0.820068;-0.213623;0.021240;0.457003;0.215182;-0.852756;0.132864
29043;6.071514;-0.531274;-4.558718;-0.106539;-0.260686;0.086193;-0.814697;-0.214111;0.040039;0.455377;0.213467;-0.854293;0.131329
29044;6.204317;-0.691524;-4.791045;-0.058783;-0.252193;0.093887;-0.819580;-0.210938;0.030762;0.453488;0.213020;-0.855476;0.130889
29045;6.492123;-0.976793;-5.132217;0.000409;-0.244288;0.096306;-0.812256;-0.202148;0.043213;0.451720;0.211861;-0.856782;0.130342
29046;6.628016;-1.228385;-5.403072;0.069704;-0.250795;0.094336;-0.820068;-0.206055;0.057861;0.449621;0.211750;-0.857854;0.130724
29047;6.594842;-1.502684;-5.739205;0.144452;-0.280041;0.106980;-0.804199;-0.206299;0.046143;0.447066;0.212318;-0.858864;0.131928
29048;6.995695;-1.588037;-6.231738;0.211965;-0.348378;0.121626;-0.821289;-0.208008;0.049316;0.444038;0.212517;-0.860191;0.133186
29049;7.940874;-1.461674;-6.882424;0.248100;-0.411214;0.127920;-0.815918;-0.203857;0.046387;0.440567;0.212377;-0.861829;0.134340
29050;9.486714;-1.313516;-7.213040;0.238395;-0.409122;0.109138;-0.812744;-0.199463;0.058838;0.437228;0.211956;-0.863507;0.135139
29051;10.818916;-1.361020;-7.166837;0.210709;-0.275916;0.076724;-0.816650;-0.203125;0.063721;0.434834;0.211953;-0.864562;0.136115
29052;11.231243;-1.473882;-6.861674;0.176107;-0.044973;0.030591;-0.821289;-0.199707;0.059814;0.434233;0.211832;-0.864745;0.137056
29053;11.175047;-1.649317;-7.501382;0.168281;0.152919;-0.017007;-0.815186;-0.197754;0.068604;0.435195;0.211416;-0.864229;0.137901
29054;12.490777;-1.613377;-8.524844;0.190391;0.167653;-0.047111;-0.821289;-0.194092;0.070557;0.436095;0.212093;-0.863387;0.139288
29055;11.063538;-1.633493;-7.713366;0.220925;0.266740;-0.091715;-0.817627;-0.197021;0.059570;0.437673;0.213153;-0.862055;0.140956
29056;8.758006;-1.375987;-6.577438;0.295724;0.168877;-0.074716;-0.819092;-0.204346;0.067871;0.438480;0.214119;-0.861096;0.142837
29057;5.485196;-0.478683;-5.544429;0.323021;-0.020769;-0.095679;-0.819336;-0.205566;0.060791;0.437808;0.216021;-0.860639;0.144770
29058;5.035843;0.573237;-6.018888;0.254558;-0.420595;-0.179639;-0.815186;-0.197266;0.068848;0.434589;0.218283;-0.861676;0.144909
29059;6.709577;0.945309;-6.456163;0.125400;-0.751355;-0.333140;-0.820068;-0.202148;0.073486;0.429335;0.221820;-0.863706;0.143104
29060;7.685747;0.901886;-5.996633;0.034471;-0.896455;-0.477236;-0.810303;-0.201904;0.088379;0.423444;0.225737;-0.866172;0.139583
29061;8.644609;0.831024;-5.916671;0.016687;-0.883797;-0.580308;-0.812744;-0.219238;0.098145;0.417679;0.230714;-0.868256;0.135817
29062;9.829359;0.956239;-6.447872;0.041132;-0.738007;-0.634406;-0.808838;-0.227539;0.107178;0.413027;0.235619;-0.869735;0.132111
29063;10.704813;1.168932;-6.977886;0.076645;-0.531181;-0.643364;-0.796631;-0.231201;0.115479;0.409792;0.240442;-0.870409;0.129020
29064;10.715063;1.079807;-6.998764;0.119839;-0.285521;-0.601444;-0.798584;-0.250000;0.122803;0.408120;0.245236;-0.870141;0.127087
29065;10.003932;0.803746;-6.590815;0.188634;-0.052275;-0.499463;-0.791504;-0.250000;0.118896;0.407908;0.249133;-0.869235;0.126389
29066;9.117261;0.589395;-6.133962;0.274832;0.141423;-0.351098;-0.792480;-0.249756;0.120850;0.408762;0.252031;-0.867877;0.127214
29067;8.259472;0.481149;-5.667032;0.342729;0.286687;-0.203829;-0.790039;-0.267090;0.120361;0.410327;0.254098;-0.866206;0.129433
29068;7.432952;0.553956;-5.297840;0.378826;0.376201;-0.093965;-0.794922;-0.242920;0.122314;0.412365;0.255305;-0.864434;0.132392
29069;6.688919;0.598311;-5.102558;0.380648;0.396006;-0.022333;-0.792969;-0.254639;0.114990;0.414333;0.256528;-0.862566;0.136017
29070;6.043918;0.495852;-4.897140;0.351073;0.357602;0.026190;-0.789551;-0.246826;0.108887;0.416097;0.257013;-0.861048;0.139297
29071;5.351305;0.254133;-4.679487;0.328713;0.271882;0.074140;-0.793213;-0.257324;0.107910;0.417217;0.257257;-0.859917;0.142450
29072;4.942019;0.095766;-4.528425;0.319448;0.158237;0.123548;-0.800293;-0.252686;0.102539;0.417521;0.257050;-0.859349;0.145330
29073;4.815906;-0.033091;-4.474814;0.306483;0.038161;0.158387;-0.796143;-0.248779;0.105713;0.416999;0.256427;-0.859360;0.147842
29074;4.900416;-0.136429;-4.485151;0.286895;-0.060434;0.172465;-0.795898;-0.244141;0.101318;0.415748;0.255988;-0.859692;0.150179
29075;5.110964;-0.159558;-4.600304;0.259453;-0.137774;0.169083;-0.793945;-0.235107;0.111328;0.414042;0.255393;-0.860365;0.152041
29076;5.510953;-0.109803;-4.711109;0.219441;-0.186806;0.145118;-0.804932;-0.233887;0.123291;0.412003;0.255329;-0.861069;0.153689
29077;5.957420;-0.028215;-4.861127;0.161199;-0.192964;0.103504;-0.798096;-0.235352;0.117432;0.410073;0.255428;-0.861759;0.154814
29078;6.340621;0.187752;-5.053014;0.091073;-0.161043;0.046857;-0.802246;-0.236572;0.117188;0.408651;0.255421;-0.862376;0.155152
29079;6.593669;0.549574;-5.312588;-0.005326;-0.123834;-0.013815;-0.791504;-0.238037;0.119629;0.407817;0.255285;-0.862916;0.154566
29080;6.208056;0.766820;-5.264551;-0.113516;-0.084727;-0.057014;-0.806396;-0.239258;0.123291;0.407510;0.255254;-0.863308;0.153234
29081;6.504796;0.755006;-5.668166;-0.204322;-0.080668;-0.074310;-0.792725;-0.238037;0.121826;0.407473;0.254854;-0.863815;0.151123
29082;7.442953;0.536552;-6.404594;-0.257523;-0.084159;-0.060228;-0.803711;-0.232178;0.122314;0.407463;0.254402;-0.864360;0.148777
29083;8.943855;0.326881;-7.135718;-0.271378;-0.060693;-0.016269;-0.795166;-0.242188;0.123535;0.407606;0.253472;-0.864951;0.146521
29084;9.919204;0.133034;-7.444208;-0.248958;0.035384;0.038016;-0.798096;-0.237549;0.116943;0.408316;0.252170;-0.865286;0.144804
29085;9.549738;-0.079160;-7.226906;-0.212667;0.126714;0.104472;-0.804199;-0.239746;0.119873;0.409551;0.250278;-0.865434;0.143712
29086;9.197490;0.101699;-7.424494;-0.182735;0.129993;0.149105;-0.802246;-0.237793;0.112061;0.410681;0.248194;-0.865614;0.143014
29087;10.986017;0.072285;-9.645654;-0.196082;0.029371;0.157899;-0.802246;-0.236084;0.104248;0.411121;0.246029;-0.866193;0.141982
29088;13.294633;-0.269960;-9.119021;-0.227077;-0.074961;0.131929;-0.807861;-0.229980;0.115479;0.410931;0.243907;-0.867153;0.140326
29089;10.423983;-0.810516;-7.747208;-0.192457;-0.014678;0.127386;-0.798096;-0.235107;0.109619;0.411048;0.242161;-0.867764;0.139223
29090;10.051019;-1.223640;-6.457950;-0.132068;-0.009778;0.161177;-0.806885;-0.234863;0.107910;0.411055;0.240307;-0.868375;0.138604
29091;8.197922;-2.030819;-4.780080;0.012861;0.027769;0.234731;-0.799805;-0.225098;0.103760;0.410987;0.238203;-0.868879;0.139277
29092;7.130274;-1.985503;-4.444702;0.156045;0.103610;0.332371;-0.804199;-0.219482;0.114746;0.411051;0.235917;-0.869105;0.141549
29093;7.587172;-1.219470;-5.418930;0.195943;0.038429;0.344008;-0.807373;-0.225098;0.114014;0.410488;0.234049;-0.869441;0.144201
29094;8.106323;-1.090851;-5.992523;0.125403;-0.048750;0.305438;-0.808105;-0.213623;0.101074;0.409508;0.232130;-0.870133;0.145900
29095;8.127171;-1.508584;-5.757455;0.050651;-0.092574;0.290050;-0.802246;-0.200928;0.102539;0.408425;0.229882;-0.871086;0.146806
29096;8.376077;-1.850572;-5.984654;0.010599;-0.122757;0.293015;-0.813965;-0.197754;0.103760;0.407153;0.227735;-0.872125;0.147519
29097;9.160812;-1.819317;-6.554059;-0.028706;-0.127000;0.297400;-0.811768;-0.202637;0.109375;0.405942;0.225279;-0.873264;0.147885
29098;9.713017;-1.341121;-6.690836;-0.109695;-0.087233;0.272181;-0.810791;-0.199463;0.112549;0.405188;0.222742;-0.874304;0.147653
29099;9.371959;-0.878628;-6.372559;-0.235117;0.007350;0.212386;-0.811035;-0.204346;0.109131;0.405406;0.220196;-0.875036;0.146533
29100;8.861507;-0.729926;-6.074478;-0.360323;0.095122;0.134036;-0.806885;-0.191895;0.106445;0.406604;0.217594;-0.875498;0.144324
29101;8.316851;-0.862463;-5.693373;-0.450922;0.180640;0.061054;-0.818604;-0.194580;0.104492;0.408639;0.215299;-0.875580;0.141490
29102;7.568896;-1.085163;-5.381319;-0.482058;0.249427;0.018709;-0.816162;-0.191895;0.104248;0.411289;0.213024;-0.875397;0.138357
29103;6.831844;-1.159975;-5.177707;-0.465421;0.271391;-0.004544;-0.809814;-0.199951;0.098633;0.414061;0.211088;-0.875023;0.135386
29104;6.158216;-1.017694;-4.922578;-0.433624;0.248333;-0.022599;-0.815918;-0.189453;0.086182;0.416623;0.209412;-0.874649;0.132515
29105;5.568808;-0.781052;-4.732761;-0.413046;0.198908;-0.042588;-0.812500;-0.200928;0.083008;0.418819;0.207937;-0.874385;0.129632
29106;5.262169;-0.552845;-4.594066;-0.400875;0.127659;-0.068670;-0.818115;-0.194580;0.071045;0.420498;0.206750;-0.874307;0.126583
29107;5.044939;-0.424100;-4.585972;-0.403247;0.062348;-0.090677;-0.810791;-0.195801;0.082275;0.421740;0.205700;-0.874425;0.123303
29108;5.062689;-0.325531;-4.563369;-0.400451;-0.003041;-0.105916;-0.812012;-0.199219;0.071289;0.422470;0.205045;-0.874688;0.119986
29109;5.277718;-0.374395;-4.683422;-0.385551;-0.052488;-0.109977;-0.809326;-0.204590;0.085938;0.422836;0.204401;-0.875119;0.116609
29110;5.659663;-0.364635;-4.767634;-0.357842;-0.070735;-0.104733;-0.816162;-0.204590;0.079834;0.422983;0.203972;-0.875557;0.113489
29111;5.968623;-0.507849;-4.791820;-0.315224;-0.057700;-0.092108;-0.819092;-0.210205;0.070557;0.423153;0.203500;-0.875941;0.110706
29112;6.259672;-0.758918;-4.890117;-0.239320;-0.010760;-0.060485;-0.819824;-0.201416;0.080811;0.423521;0.202934;-0.876157;0.108615
29113;6.443331;-0.929551;-5.084110;-0.137989;0.030813;-0.024979;-0.819580;-0.209229;0.076660;0.423967;0.202540;-0.876165;0.107540
29114;6.296151;-1.096769;-5.147425;-0.030146;0.048432;0.001932;-0.816406;-0.197998;0.072510;0.424342;0.202275;-0.876069;0.107341
29115;6.275569;-1.159623;-5.528017;0.072448;0.026046;0.009848;-0.815430;-0.213867;0.070312;0.424372;0.202357;-0.875965;0.107913
29116;7.064284;-1.307069;-6.231741;0.163182;-0.039819;0.012510;-0.809570;-0.208496;0.075195;0.423771;0.202760;-0.876029;0.108995
29117;8.528794;-1.292774;-6.956916;0.231983;-0.096478;-0.006051;-0.815918;-0.199707;0.074951;0.422646;0.203647;-0.876184;0.110456
29118;9.277070;-1.054484;-7.449776;0.255040;-0.093730;-0.048097;-0.813477;-0.206055;0.078857;0.421543;0.204905;-0.876232;0.111953
29119;9.337243;-1.108279;-7.458481;0.248391;-0.110190;-0.086378;-0.822998;-0.210205;0.076904;0.420362;0.206439;-0.876275;0.113230
29120;9.002124;-1.241133;-7.143225;0.259072;-0.127924;-0.096616;-0.813232;-0.209717;0.080322;0.419049;0.208057;-0.876357;0.114496
29121;10.086841;-1.336166;-8.414864;0.276057;-0.172816;-0.092564;-0.812256;-0.207275;0.090332;0.417366;0.209780;-0.876572;0.115839
29122;13.111913;-1.449270;-8.361804;0.301996;-0.211242;-0.087731;-0.811035;-0.212402;0.094482;0.415342;0.211626;-0.876890;0.117344
29123;10.903901;-1.586298;-7.549936;0.351653;0.048281;-0.083406;-0.821289;-0.207275;0.085205;0.415120;0.213354;-0.876261;0.119676
29124;11.299818;-0.943769;-7.401018;0.372061;0.048639;-0.059613;-0.814941;-0.211182;0.088623;0.414848;0.214935;-0.875650;0.122236
29125;8.096396;-0.217993;-6.454563;0.332314;0.074072;-0.092811;-0.807617;-0.212891;0.094727;0.414858;0.216613;-0.874921;0.124438
29126;6.786955;0.967106;-5.743409;0.197037;-0.115348;-0.160075;-0.813232;-0.210205;0.091309;0.413792;0.218539;-0.874854;0.125088
29127;5.203624;1.472017;-5.617394;0.012947;-0.284331;-0.293057;-0.810059;-0.214111;0.102051;0.411970;0.220949;-0.875317;0.123624
29128;6.575833;1.392382;-6.036536;-0.154785;-0.552620;-0.371389;-0.807617;-0.219727;0.099121;0.408566;0.223641;-0.876708;0.120174
29129;6.757763;1.077405;-5.824557;-0.236260;-0.609969;-0.413114;-0.806641;-0.221191;0.116211;0.404930;0.226386;-0.878270;0.115859
29130;7.649016;0.852750;-6.117839;-0.245126;-0.626936;-0.389100;-0.810547;-0.227295;0.115479;0.401138;0.228951;-0.879903;0.111538
29131;8.685151;0.862575;-6.635752;-0.199209;-0.545461;-0.343197;-0.802979;-0.233887;0.125732;0.397807;0.231221;-0.881281;0.107847
29132;9.525225;1.029254;-6.868599;-0.150779;-0.385317;-0.287663;-0.798828;-0.230469;0.123047;0.395495;0.233108;-0.882167;0.105000
29133;10.016403;0.829010;-6.942937;-0.102321;-0.162220;-0.228781;-0.797363;-0.234863;0.129150;0.394678;0.234517;-0.882379;0.103144
29134;10.104800;0.416861;-6.670536;-0.023493;0.100996;-0.157367;-0.804688;-0.241699;0.122559;0.395576;0.235441;-0.881792;0.102616
29135;9.661656;0.329313;-6.323701;0.066940;0.362375;-0.093020;-0.812744;-0.241943;0.122559;0.398166;0.235947;-0.880391;0.103462
29136;8.996799;0.462354;-6.054661;0.129309;0.577111;-0.064499;-0.802734;-0.236572;0.110840;0.402176;0.236266;-0.878264;0.105288
29137;8.174893;0.712351;-5.888240;0.145975;0.705431;-0.067308;-0.799805;-0.239990;0.113281;0.407082;0.236553;-0.875657;0.107482
29138;7.272283;0.701103;-5.668170;0.130091;0.738640;-0.076259;-0.797363;-0.234863;0.103516;0.412248;0.236829;-0.872900;0.109591
29139;6.278416;0.493673;-5.333923;0.125715;0.684783;-0.062434;-0.805664;-0.248535;0.092773;0.417003;0.237029;-0.870327;0.111610
29140;5.562668;0.199564;-5.085418;0.145165;0.561933;-0.020466;-0.807373;-0.245117;0.079346;0.420781;0.237087;-0.868227;0.113645
29141;5.231702;-0.045223;-4.883971;0.191690;0.409257;0.052633;-0.797852;-0.236572;0.080078;0.423288;0.236914;-0.866747;0.115970
29142;5.216840;-0.143006;-4.729004;0.253804;0.251558;0.125412;-0.807373;-0.235840;0.069580;0.424455;0.236594;-0.865894;0.118699
29143;5.424773;-0.087441;-4.623452;0.296044;0.130349;0.165282;-0.806396;-0.237793;0.075195;0.424624;0.236242;-0.865501;0.121627
29144;5.636870;0.080830;-4.629212;0.308290;0.043969;0.167716;-0.807617;-0.234863;0.077637;0.424136;0.236008;-0.865398;0.124479
29145;5.877582;0.289955;-4.635133;0.284086;-0.011388;0.138982;-0.814453;-0.229980;0.082520;0.423323;0.235952;-0.865453;0.126945
29146;5.871701;0.423732;-4.560715;0.224558;-0.032223;0.082275;-0.815918;-0.243652;0.078369;0.422534;0.236115;-0.865528;0.128744
29147;5.861585;0.535102;-4.835405;0.155215;-0.062248;0.026667;-0.807861;-0.236572;0.078125;0.421725;0.236464;-0.865675;0.129770
29148;5.734445;0.630228;-4.907296;0.074904;-0.104543;-0.002241;-0.821045;-0.224854;0.084473;0.420800;0.236784;-0.865998;0.130035
29149;5.399897;0.728251;-5.004008;0.005896;-0.163000;-0.003543;-0.813721;-0.225098;0.081299;0.419589;0.236931;-0.866596;0.129694
29150;5.942398;0.669329;-5.438345;-0.056428;-0.232805;0.014610;-0.812012;-0.238770;0.092285;0.417978;0.236800;-0.867540;0.128820
29151;7.292011;0.509080;-6.055951;-0.091544;-0.264955;0.037214;-0.810059;-0.229492;0.093506;0.416174;0.236423;-0.868675;0.127696
29152;9.026209;0.452877;-6.799174;-0.115546;-0.216619;0.054445;-0.809082;-0.234375;0.089600;0.414747;0.235782;-0.869698;0.126558
29153;9.915997;0.370442;-7.241436;-0.134849;-0.099139;0.074850;-0.814941;-0.231445;0.098145;0.414189;0.234797;-0.870373;0.125571
29154;9.490776;0.265658;-6.997201;-0.139590;0.012348;0.113825;-0.815918;-0.231934;0.091553;0.414405;0.233399;-0.870742;0.124908
29155;9.604416;0.366397;-7.858821;-0.149174;0.048454;0.153851;-0.816895;-0.234131;0.092041;0.414861;0.231635;-0.871072;0.124378
29156;12.062764;0.352781;-9.163672;-0.187592;-0.014161;0.168595;-0.813721;-0.216797;0.087402;0.414919;0.229695;-0.871683;0.123494
29157;12.419190;0.168383;-8.922280;-0.234714;0.082628;0.140148;-0.813965;-0.214844;0.094971;0.415800;0.227693;-0.871948;0.122366
29158;12.013665;-0.053364;-8.268211;-0.256030;0.119308;0.124375;-0.821777;-0.223877;0.091064;0.416997;0.225703;-0.872070;0.121104
29159;9.816745;-0.661020;-6.584704;-0.225186;0.182551;0.120013;-0.823975;-0.223633;0.086914;0.418598;0.223784;-0.871928;0.120157
29160;7.544488;-1.689861;-5.268409;-0.102657;0.183131;0.208486;-0.815186;-0.214111;0.080566;0.419885;0.221648;-0.871820;0.120410
29161;6.521187;-1.945575;-4.909767;0.087646;0.082653;0.332183;-0.825439;-0.206787;0.072510;0.419964;0.219378;-0.872093;0.122300
29162;6.650500;-1.423300;-5.267124;0.189049;-0.049684;0.394362;-0.820557;-0.195801;0.079346;0.418832;0.217137;-0.872829;0.124905
29163;7.296476;-1.101269;-5.457192;0.186438;-0.173579;0.389007;-0.821045;-0.202637;0.086426;0.416800;0.215060;-0.873975;0.127259
29164;7.209960;-1.070471;-5.495834;0.121237;-0.253096;0.362031;-0.829346;-0.195312;0.086914;0.414325;0.213042;-0.875406;0.128887
29165;7.718961;-1.046099;-5.745046;0.028106;-0.310806;0.321721;-0.823486;-0.184570;0.091064;0.411634;0.211051;-0.877051;0.129597
29166;8.622396;-1.200586;-6.101813;-0.066618;-0.308138;0.294010;-0.829590;-0.178223;0.096436;0.409154;0.208933;-0.878727;0.129531
29167;9.568680;-1.275625;-6.426911;-0.152914;-0.232933;0.284678;-0.832275;-0.175293;0.098877;0.407379;0.206507;-0.880212;0.128937
29168;10.084179;-1.150736;-6.322414;-0.237735;-0.083880;0.276010;-0.837646;-0.181641;0.095703;0.406849;0.203695;-0.881256;0.127947
29169;9.884947;-1.044792;-5.972814;-0.319312;0.116746;0.250740;-0.829346;-0.182129;0.099854;0.407955;0.200576;-0.881654;0.126602
29170;9.371968;-0.995185;-5.610570;-0.386885;0.331728;0.201622;-0.831543;-0.171143;0.094727;0.410794;0.197366;-0.881296;0.124948
29171;8.704276;-1.071408;-5.330056;-0.416694;0.487046;0.132437;-0.828613;-0.177002;0.083984;0.414886;0.194396;-0.880298;0.123105
29172;7.850568;-1.177846;-5.122455;-0.420672;0.553455;0.060365;-0.833984;-0.161377;0.074951;0.419533;0.191869;-0.878930;0.121081
29173;7.125603;-1.131380;-4.921552;-0.403070;0.537957;-0.018334;-0.843506;-0.177246;0.065674;0.424105;0.189985;-0.877441;0.118904
29174;6.466793;-0.944258;-4.706029;-0.380709;0.470263;-0.096194;-0.831299;-0.171143;0.062256;0.428212;0.188816;-0.876021;0.116490
29175;5.951976;-0.760241;-4.521025;-0.364172;0.364936;-0.166867;-0.839111;-0.177246;0.055908;0.431580;0.188320;-0.874830;0.113782
29176;5.715103;-0.543176;-4.501371;-0.356759;0.236089;-0.212445;-0.828857;-0.179443;0.050537;0.434034;0.188301;-0.874008;0.110760
29177;5.708805;-0.419950;-4.481142;-0.353956;0.116305;-0.227137;-0.834717;-0.174805;0.049316;0.435617;0.188510;-0.873580;0.107515
29178;5.822322;-0.327874;-4.539646;-0.345427;0.025196;-0.214885;-0.833496;-0.184082;0.043945;0.436508;0.188732;-0.873484;0.104239
29179;6.085896;-0.300287;-4.597028;-0.332292;-0.038013;-0.190411;-0.833740;-0.184082;0.038574;0.436894;0.188883;-0.873634;0.101044
29180;6.370366;-0.356745;-4.653704;-0.305592;-0.062066;-0.153318;-0.829834;-0.194336;0.045166;0.437029;0.188879;-0.873898;0.098146
29181;6.636888;-0.463887;-4.731689;-0.260765;-0.051772;-0.114213;-0.833496;-0.191162;0.047119;0.437130;0.188749;-0.874144;0.095723
29182;6.786737;-0.544537;-4.836583;-0.198573;-0.024182;-0.072369;-0.827637;-0.192139;0.043457;0.437299;0.188512;-0.874303;0.093950
29183;6.721185;-0.619321;-4.890712;-0.127335;0.004573;-0.027242;-0.829102;-0.183350;0.032959;0.437530;0.188187;-0.874369;0.092910
29184;6.572818;-0.784136;-4.966984;-0.050214;0.011305;0.012185;-0.829834;-0.196045;0.039307;0.437663;0.187846;-0.874408;0.092600
29185;6.732050;-0.984169;-5.212359;0.034868;-0.005586;0.037253;-0.831543;-0.192383;0.050781;0.437517;0.187659;-0.874483;0.092965
29186;7.382606;-1.019969;-5.611938;0.110932;-0.032268;0.044842;-0.837891;-0.184082;0.047607;0.437046;0.187703;-0.874613;0.093864
29187;8.439686;-1.223184;-6.233190;0.174119;-0.027434;0.029203;-0.832764;-0.190918;0.041504;0.436525;0.188079;-0.874650;0.095182
29188;9.497554;-1.235666;-6.869940;0.231576;-0.024296;0.008684;-0.839355;-0.181885;0.047363;0.435955;0.188830;-0.874588;0.096857
29189;9.053179;-1.545565;-6.641486;0.285984;0.000551;-0.014510;-0.839844;-0.175293;0.054199;0.435496;0.189911;-0.874356;0.098883
29190;8.179901;-1.573444;-6.175440;0.356468;-0.032231;-0.010181;-0.830322;-0.186523;0.051758;0.434678;0.191229;-0.874190;0.101384
29191;7.983288;-1.231629;-5.826569;0.398560;-0.084390;-0.031810;-0.834961;-0.190430;0.054199;0.433427;0.192929;-0.874126;0.104035
29192;9.600292;-1.166769;-8.455080;0.407811;-0.166792;-0.070733;-0.839111;-0.194824;0.052002;0.431589;0.195020;-0.874277;0.106481
29193;14.449963;-1.089380;-8.497813;0.393756;-0.331361;-0.126470;-0.827881;-0.190918;0.059814;0.428619;0.197619;-0.874923;0.108361
29194;10.424743;-1.841938;-7.545873;0.431739;-0.042371;-0.148313;-0.837891;-0.195557;0.069580;0.427705;0.200245;-0.874453;0.110917
29195;10.801780;-0.657345;-6.724968;0.462931;-0.111068;-0.145833;-0.836914;-0.181885;0.060791;0.426228;0.203019;-0.874192;0.113587
29196;7.370722;0.081301;-5.178561;0.424189;-0.081839;-0.231103;-0.842041;-0.196533;0.060303;0.425109;0.206237;-0.873701;0.115737
29197;6.430232;1.316827;-4.986633;0.295710;-0.198204;-0.346828;-0.831787;-0.197754;0.077637;0.423469;0.209971;-0.873528;0.116341
29198;6.237450;1.197192;-5.127728;0.163118;-0.325194;-0.496879;-0.829102;-0.201904;0.074707;0.421268;0.214429;-0.873660;0.115204
29199;6.743368;1.104645;-5.250823;0.116070;-0.442433;-0.576148;-0.828613;-0.215576;0.094482;0.418364;0.219409;-0.874076;0.113240
29200;7.112963;1.048082;-5.368256;0.131077;-0.485022;-0.616004;-0.822754;-0.217041;0.094482;0.415137;0.224755;-0.874524;0.111145
29201;7.680859;1.010467;-5.781801;0.201154;-0.491712;-0.597152;-0.818604;-0.230225;0.098877;0.411700;0.230202;-0.874926;0.109615
29202;8.589043;1.178410;-6.240055;0.294235;-0.449299;-0.540028;-0.821045;-0.229736;0.108887;0.408324;0.235514;-0.875166;0.109036
29203;9.359507;1.378857;-6.555565;0.379461;-0.340789;-0.484289;-0.820312;-0.240723;0.113770;0.405508;0.240587;-0.875041;0.109476
29204;10.039625;1.191605;-6.558498;0.463016;-0.171016;-0.417687;-0.811035;-0.248047;0.112305;0.403690;0.245301;-0.874370;0.111084
29205;10.205856;0.859030;-6.334404;0.567978;0.057191;-0.342971;-0.816895;-0.240967;0.120850;0.403241;0.249614;-0.872957;0.114171
29206;10.136882;0.649229;-6.087663;0.678894;0.295500;-0.271013;-0.808838;-0.244629;0.115723;0.404212;0.253522;-0.870761;0.118803
29207;9.815965;0.664689;-5.836849;0.772957;0.500608;-0.233060;-0.812256;-0.243164;0.109619;0.406415;0.257262;-0.867813;0.124672
29208;9.140959;0.900616;-5.617640;0.816372;0.648447;-0.225199;-0.814941;-0.246338;0.104004;0.409560;0.260919;-0.864274;0.131195
29209;8.341751;1.049048;-5.431160;0.811001;0.701004;-0.226010;-0.809326;-0.256104;0.105957;0.413064;0.264486;-0.860490;0.137778
29210;7.395030;0.879801;-5.137697;0.791542;0.664688;-0.207328;-0.815186;-0.251709;0.110840;0.416291;0.267879;-0.856829;0.144181
29211;6.662678;0.543658;-4.872910;0.786105;0.543067;-0.159516;-0.814209;-0.257568;0.094238;0.418570;0.271026;-0.853647;0.150434
29212;6.240926;0.239264;-4.579973;0.812712;0.388140;-0.086211;-0.811523;-0.258057;0.099121;0.419577;0.273932;-0.851082;0.156767
29213;6.071873;0.182003;-4.418408;0.847605;0.227968;-0.020405;-0.811035;-0.257080;0.098389;0.419255;0.276687;-0.849138;0.163202
29214;6.173862;0.201365;-4.296626;0.861695;0.091812;0.006833;-0.817139;-0.257080;0.097168;0.417879;0.279471;-0.847668;0.169507
29215;6.248833;0.205826;-4.264797;0.856617;-0.013820;-0.000784;-0.815430;-0.250000;0.107422;0.415761;0.282424;-0.846511;0.175494
29216;6.394342;0.296991;-4.380254;0.824813;-0.099959;-0.039663;-0.811279;-0.239990;0.114502;0.413144;0.285647;-0.845569;0.180917
29217;6.589575;0.404308;-4.410172;0.781715;-0.161911;-0.100695;-0.819092;-0.249268;0.125488;0.410264;0.289224;-0.844723;0.185679
29218;6.478567;0.557679;-4.456560;0.722546;-0.199203;-0.162408;-0.818115;-0.248779;0.124756;0.407339;0.293086;-0.843912;0.189706
29219;6.429052;0.677769;-4.500783;0.654924;-0.242843;-0.200283;-0.815186;-0.254639;0.129150;0.404322;0.297039;-0.843230;0.193012
29220;6.328067;0.724017;-4.552728;0.593419;-0.270465;-0.222694;-0.806396;-0.253906;0.142578;0.401288;0.300982;-0.842656;0.195726
29221;6.804348;0.736519;-4.969197;0.535004;-0.303080;-0.229509;-0.809814;-0.255859;0.146973;0.398161;0.304824;-0.842246;0.197920
29222;7.713099;0.561481;-5.532801;0.498732;-0.316118;-0.231072;-0.807617;-0.257080;0.150146;0.395031;0.308564;-0.841910;0.199814
29223;8.274026;0.289187;-5.653820;0.492063;-0.280100;-0.220011;-0.804443;-0.259521;0.149170;0.392145;0.312134;-0.841474;0.201782
29224;8.280745;0.120160;-5.518391;0.516021;-0.223116;-0.205919;-0.801270;-0.253906;0.157227;0.389570;0.315578;-0.840826;0.204100
29225;8.207190;0.169554;-5.677865;0.547507;-0.173713;-0.229428;-0.797119;-0.266357;0.162354;0.387286;0.319193;-0.839881;0.206702
29226;8.863711;0.228030;-6.756634;0.556675;-0.196626;-0.289254;-0.801514;-0.268799;0.167969;0.384908;0.323297;-0.838815;0.209081
29227;9.991417;-0.159863;-6.550764;0.584524;-0.259980;-0.381254;-0.798096;-0.268311;0.180420;0.382161;0.328228;-0.837628;0.211183
29228;8.338414;-0.516091;-6.034211;0.665365;-0.226561;-0.488824;-0.796875;-0.273926;0.189941;0.379591;0.334096;-0.835861;0.213602
29229;9.324792;-1.035449;-7.059838;0.801517;-0.388864;-0.528478;-0.789062;-0.274414;0.194580;0.375555;0.340943;-0.834204;0.216379
29230;9.087021;-1.543964;-5.689174;0.981568;-0.394262;-0.546011;-0.782471;-0.277100;0.199707;0.370974;0.348453;-0.832115;0.220325
29231;7.337284;-2.684314;-5.633439;1.258765;-0.438433;-0.445410;-0.781982;-0.278564;0.216797;0.365059;0.356162;-0.829847;0.226351
29232;8.331050;-3.280960;-6.066352;1.621810;-0.543911;-0.284194;-0.784912;-0.287842;0.221191;0.356961;0.364005;-0.827548;0.235037
29233;9.178606;-2.878399;-6.677719;1.928470;-0.554033;-0.174953;-0.785156;-0.268555;0.254395;0.347587;0.371928;-0.824816;0.246032
29234;10.368286;-2.620272;-7.547576;2.129130;-0.534759;-0.151651;-0.773682;-0.268311;0.262695;0.337531;0.380137;-0.821418;0.258537
29235;10.628931;-2.881198;-7.105784;2.257226;-0.468729;-0.220835;-0.770264;-0.261230;0.284668;0.327566;0.388903;-0.817057;0.271796
29236;10.123268;-2.740877;-6.125162;2.354465;-0.334585;-0.340357;-0.765869;-0.247559;0.293701;0.318326;0.398305;-0.811408;0.285725
29237;9.989169;-1.914149;-5.673733;2.361188;-0.159737;-0.577745;-0.764404;-0.250000;0.322998;0.310689;0.408746;-0.804150;0.299568
29238;10.242338;-1.367482;-5.618037;2.262886;0.042478;-0.875844;-0.754395;-0.247070;0.318115;0.305311;0.420290;-0.795283;0.312517
29239;10.216851;-1.703348;-5.739365;2.155489;0.243887;-1.125775;-0.758301;-0.256836;0.321777;0.302205;0.432503;-0.784975;0.324695
29240;9.850631;-2.022041;-5.736141;2.107806;0.387778;-1.294975;-0.753906;-0.262695;0.334717;0.300569;0.445127;-0.773495;0.336490
29241;9.194114;-2.046714;-5.511631;2.103418;0.485919;-1.410196;-0.750000;-0.257568;0.334961;0.299734;0.458029;-0.761016;0.348171
29242;8.401351;-1.898998;-5.269467;2.124317;0.522015;-1.490032;-0.743896;-0.264404;0.342041;0.299126;0.471149;-0.747702;0.359838
29243;7.510635;-1.773540;-5.160901;2.161675;0.450142;-1.552648;-0.737061;-0.263184;0.350830;0.297938;0.484748;-0.733845;0.371113
29244;6.797307;-1.745028;-5.074894;2.223464;0.284743;-1.576772;-0.727539;-0.282715;0.355957;0.295361;0.498909;-0.719727;0.381896
29245;6.430763;-1.637065;-5.071905;2.289595;0.076275;-1.583528;-0.729004;-0.294922;0.370850;0.291163;0.513708;-0.705520;0.391880
29246;6.492367;-1.526143;-5.049332;2.356677;-0.135717;-1.590017;-0.719727;-0.301025;0.390137;0.285299;0.529124;-0.691197;0.401097
29247;6.805227;-1.480744;-5.056232;2.426257;-0.300223;-1.606378;-0.708496;-0.282471;0.399414;0.278049;0.545057;-0.676567;0.409705
29248;7.158540;-1.351259;-5.116442;2.480839;-0.409153;-1.631250;-0.695557;-0.287598;0.421875;0.269845;0.561203;-0.661464;0.417973
29249;7.289399;-1.258018;-5.175047;2.520839;-0.472805;-1.671244;-0.672607;-0.291504;0.433105;0.261090;0.577552;-0.645755;0.425754
29250;7.121223;-1.328975;-5.257545;2.556483;-0.530069;-1.717407;-0.680908;-0.292236;0.449219;0.251906;0.594045;-0.629398;0.433025
29251;6.945636;-1.464849;-5.328045;2.603021;-0.592983;-1.743984;-0.655518;-0.299072;0.473389;0.242125;0.610548;-0.612436;0.439919
29252;6.891243;-1.489720;-5.356448;2.669316;-0.641111;-1.757124;-0.637207;-0.290771;0.494385;0.231626;0.627029;-0.594829;0.446500
29253;7.112302;-1.587910;-5.495654;2.744421;-0.659898;-1.757340;-0.633301;-0.281494;0.515625;0.220452;0.643252;-0.576531;0.453035
29254;7.570037;-1.673355;-5.693018;2.823591;-0.630729;-1.742986;-0.614258;-0.274170;0.548096;0.208768;0.658918;-0.557507;0.459814
29255;7.986501;-1.786804;-5.811708;2.902505;-0.552135;-1.717661;-0.599609;-0.269287;0.557617;0.196737;0.673800;-0.537740;0.467038
29256;8.227988;-1.813102;-5.807650;2.965081;-0.428758;-1.686474;-0.583008;-0.256348;0.573486;0.184668;0.687599;-0.517276;0.474902
29257;8.296993;-1.725661;-5.731548;3.002546;-0.294121;-1.662784;-0.573486;-0.238281;0.591797;0.172712;0.700261;-0.496170;0.483344
29258;8.294381;-1.632259;-5.510756;3.002303;-0.163426;-1.635702;-0.566406;-0.228760;0.600098;0.161038;0.711712;-0.474628;0.492200
29259;8.210896;-1.520100;-5.135962;2.972720;-0.032813;-1.609729;-0.562256;-0.214355;0.623047;0.149841;0.721911;-0.452814;0.501349
29260;8.060411;-1.481030;-4.793849;2.919506;0.071328;-1.562648;-0.552734;-0.192871;0.632324;0.139030;0.730882;-0.431024;0.510589
29261;7.781931;-1.448983;-4.498421;2.871349;0.146981;-1.504177;-0.554199;-0.179199;0.640381;0.128424;0.738722;-0.409385;0.519809
29262;7.378158;-1.439484;-4.135518;2.824154;0.173418;-1.448356;-0.551270;-0.162598;0.647949;0.117879;0.745675;-0.387977;0.528722
29263;6.939102;-1.618252;-4.283689;2.797845;0.158243;-1.388243;-0.541016;-0.132080;0.651611;0.107100;0.751965;-0.366808;0.537150
29264;7.937127;-2.087957;-5.618283;2.810359;0.019480;-1.298550;-0.541260;-0.124268;0.662354;0.095336;0.758112;-0.346022;0.544468
29265;10.134705;-2.350306;-6.609077;2.850977;-0.148028;-1.188605;-0.538086;-0.101562;0.662598;0.082284;0.764233;-0.325660;0.550567
29266;10.495226;-1.899227;-5.573105;2.878355;-0.102378;-1.163620;-0.535645;-0.071045;0.679932;0.069008;0.769586;-0.305084;0.556686
29267;8.776108;-1.560141;-4.390741;2.890936;-0.032793;-1.181748;-0.538818;-0.059814;0.687744;0.055861;0.774157;-0.284090;0.562897
29268;7.313613;-1.306723;-4.030453;2.906866;-0.048543;-1.236385;-0.526855;-0.022949;0.692871;0.042799;0.778412;-0.262485;0.568634
29269;7.223610;-0.571984;-4.321198;2.888490;-0.147360;-1.314745;-0.514160;-0.014648;0.692383;0.029975;0.782761;-0.240311;0.573269
29270;8.179423;-0.011869;-5.119235;2.810191;-0.261544;-1.414255;-0.520752;0.012695;0.696045;0.017891;0.787295;-0.217725;0.576578
29271;9.485646;0.544927;-5.432013;2.697218;-0.313089;-1.511292;-0.510498;0.029541;0.697510;0.006906;0.791702;-0.194901;0.578941
29272;10.027318;0.861410;-5.529103;2.560056;-0.262585;-1.573734;-0.513184;0.044189;0.699219;-0.002795;0.795450;-0.172194;0.581034
29273;9.878548;0.922417;-5.586134;2.443956;-0.198161;-1.565684;-0.509766;0.055176;0.700928;-0.011673;0.798395;-0.149993;0.583036
29274;9.561339;0.880843;-5.671023;2.361625;-0.160705;-1.485033;-0.516113;0.077148;0.704102;-0.020342;0.800620;-0.128642;0.584847
29275;9.343807;0.851214;-5.653677;2.305949;-0.168523;-1.338675;-0.512451;0.086914;0.699463;-0.029354;0.802322;-0.108464;0.586219
29276;9.027605;0.964393;-5.456688;2.254317;-0.204139;-1.177867;-0.510498;0.107178;0.705811;-0.038823;0.803690;-0.089548;0.586989
29277;8.865692;0.953240;-5.187565;2.195031;-0.250341;-1.039497;-0.503662;0.123291;0.697754;-0.048592;0.804855;-0.071790;0.587106
29278;8.982091;0.798858;-5.034212;2.144162;-0.270696;-0.938816;-0.499268;0.139648;0.695312;-0.058506;0.805761;-0.054913;0.586781
29279;8.918146;0.798583;-4.863270;2.088942;-0.262338;-0.880393;-0.503418;0.164551;0.701660;-0.068311;0.806327;-0.038677;0.586237
29280;8.644855;0.738854;-4.725702;2.028469;-0.257635;-0.848187;-0.506104;0.172852;0.698730;-0.077843;0.806614;-0.022936;0.585481
29281;8.314535;0.683989;-4.585444;1.962303;-0.252820;-0.830262;-0.505371;0.189453;0.692139;-0.086990;0.806653;-0.007629;0.584539
29282;7.870334;0.607086;-4.455800;1.897145;-0.275965;-0.810182;-0.501709;0.206543;0.685059;-0.095774;0.806601;0.007249;0.583240
29283;7.583366;0.498584;-4.425680;1.831344;-0.308531;-0.791192;-0.503418;0.218506;0.692871;-0.104180;0.806528;0.021709;0.581539
29284;7.436039;0.484327;-4.456936;1.766139;-0.360232;-0.768891;-0.500488;0.227295;0.678223;-0.112218;0.806547;0.035745;0.579320
29285;7.339153;0.566281;-4.507763;1.692444;-0.406685;-0.746166;-0.503418;0.247559;0.678467;-0.119829;0.806657;0.049312;0.576640
29286;7.387560;0.640898;-4.612078;1.612779;-0.455483;-0.715848;-0.494629;0.261475;0.682617;-0.127003;0.806902;0.062333;0.573493
29287;7.596081;0.840029;-4.700251;1.515944;-0.483804;-0.670344;-0.491943;0.271973;0.681641;-0.133702;0.807233;0.074606;0.570028
29288;7.791913;1.036492;-4.730656;1.391077;-0.483477;-0.612644;-0.493408;0.288086;0.672607;-0.139809;0.807583;0.085888;0.566468
29289;7.955669;1.187751;-4.768720;1.249311;-0.466981;-0.548950;-0.486084;0.295654;0.662354;-0.145254;0.807936;0.096046;0.562953
29290;7.901170;1.303359;-4.693974;1.086229;-0.441494;-0.480800;-0.486328;0.303223;0.667969;-0.149923;0.808318;0.104942;0.559582
29291;7.778878;1.278844;-4.653957;0.933992;-0.416047;-0.413786;-0.478271;0.308594;0.668213;-0.153886;0.808751;0.112642;0.556374
29292;7.771586;1.151906;-4.635293;0.793567;-0.403637;-0.351484;-0.481934;0.310303;0.662842;-0.157192;0.809305;0.119252;0.553258
29293;8.079674;1.007187;-4.640189;0.679397;-0.382276;-0.298165;-0.481689;0.310547;0.667480;-0.159986;0.809917;0.124949;0.550297
29294;8.145054;0.887858;-4.434272;0.578908;-0.340143;-0.256327;-0.475830;0.326172;0.675049;-0.162330;0.810479;0.129845;0.547643
29295;8.175569;0.668321;-4.592397;0.507955;-0.320387;-0.212566;-0.465820;0.325684;0.665527;-0.164414;0.811069;0.134097;0.545118
29296;8.795582;0.323018;-4.966874;0.468308;-0.323691;-0.163660;-0.471191;0.335205;0.666992;-0.166442;0.811760;0.137843;0.542533
29297;9.359078;0.142726;-5.274550;0.453506;-0.324153;-0.111736;-0.462646;0.336914;0.674316;-0.168602;0.812513;0.141173;0.539876
29298;9.674741;-0.097416;-5.547275;0.442448;-0.334201;-0.057866;-0.454346;0.340088;0.668457;-0.170911;0.813375;0.144102;0.537072
29299;10.294064;-0.310169;-5.912484;0.431135;-0.357864;-0.006700;-0.456055;0.344727;0.662842;-0.173341;0.814401;0.146667;0.534035
29300;12.074267;-0.936950;-8.388722;0.420183;-0.451569;0.055078;-0.452393;0.350586;0.668213;-0.175853;0.815914;0.148900;0.530273
29301;14.428109;-1.282372;-6.874384;0.436533;-0.500533;0.098865;-0.443848;0.354736;0.665283;-0.178601;0.817651;0.150977;0.526074
29302;10.200978;-1.883133;-5.523417;0.473759;-0.285190;0.104619;-0.439209;0.368652;0.670654;-0.181895;0.818375;0.152855;0.523270
29303;10.988110;-2.069302;-5.303518;0.547271;-0.304734;0.121816;-0.431641;0.367676;0.666992;-0.185736;0.819075;0.154959;0.520198
29304;11.113378;-1.741369;-4.569898;0.572580;-0.192627;0.049409;-0.428711;0.371338;0.670654;-0.189572;0.819135;0.157487;0.517955
29305;11.177571;-1.256372;-3.362105;0.497209;0.051047;-0.059460;-0.440186;0.376465;0.663086;-0.192740;0.818103;0.160041;0.517634
29306;9.674590;-1.003583;-2.778916;0.346658;0.318186;-0.205347;-0.442139;0.383545;0.660156;-0.194608;0.815947;0.162510;0.519567
29307;7.720067;-1.412111;-3.090408;0.206086;0.371569;-0.292748;-0.448242;0.380859;0.657471;-0.195215;0.813658;0.164871;0.522178
29308;7.096348;-1.804356;-3.555295;0.134891;0.225177;-0.314399;-0.451416;0.387939;0.653564;-0.195038;0.812080;0.167302;0.523923
29309;7.370836;-1.591605;-3.825637;0.078393;0.066321;-0.297661;-0.450928;0.373779;0.650146;-0.194337;0.811303;0.169630;0.524639
29310;8.327968;-1.517581;-4.344628;0.014406;-0.057933;-0.260354;-0.454346;0.374756;0.658447;-0.193176;0.811223;0.171619;0.524544
29311;9.694825;-1.267862;-4.456375;-0.048640;-0.088143;-0.220763;-0.453613;0.373535;0.656006;-0.191724;0.811431;0.173112;0.524266
29312;10.192798;-0.840309;-4.231496;-0.136229;0.023208;-0.212798;-0.454834;0.373779;0.650879;-0.189880;0.811296;0.173994;0.524852
29313;10.302062;-0.858651;-4.152832;-0.224193;0.191163;-0.213047;-0.449219;0.375732;0.664307;-0.187691;0.810557;0.174229;0.526700
29314;9.930515;-1.068407;-4.160360;-0.268127;0.355730;-0.198732;-0.456787;0.366699;0.660400;-0.185498;0.809185;0.173908;0.529685
29315;9.261788;-1.271493;-4.090314;-0.270957;0.472300;-0.166085;-0.470215;0.365479;0.650879;-0.183592;0.807328;0.173173;0.533410
29316;8.410876;-1.321287;-3.866696;-0.249975;0.533551;-0.120850;-0.473389;0.352539;0.654297;-0.182119;0.805210;0.172132;0.537439
29317;7.533636;-1.311979;-3.651481;-0.213226;0.532779;-0.080011;-0.473877;0.354736;0.643799;-0.181060;0.803087;0.170970;0.541330
29318;6.936809;-1.267586;-3.495304;-0.178046;0.477253;-0.056768;-0.479980;0.353027;0.640625;-0.180275;0.801175;0.169896;0.544752
29319;6.522889;-1.223978;-3.441094;-0.145609;0.384539;-0.047871;-0.487793;0.357422;0.644287;-0.179610;0.799637;0.169044;0.547489
29320;6.242781;-1.137440;-3.327674;-0.119042;0.264192;-0.054511;-0.482666;0.349365;0.639160;-0.178922;0.798594;0.168535;0.549391
29321;6.223204;-1.011086;-3.294112;-0.099366;0.153283;-0.072763;-0.488770;0.344727;0.642090;-0.178120;0.798003;0.168398;0.550551
29322;6.419892;-0.951862;-3.231525;-0.092826;0.064025;-0.085360;-0.496094;0.346436;0.640137;-0.177175;0.797791;0.168506;0.551129
29323;6.720427;-0.969290;-3.213904;-0.083655;0.012679;-0.091876;-0.489258;0.354492;0.648926;-0.176197;0.797788;0.168779;0.551365
29324;7.062695;-0.998848;-3.181076;-0.075224;0.004474;-0.084811;-0.488281;0.350342;0.638916;-0.175300;0.797826;0.169051;0.551512
29325;7.248095;-1.008837;-3.232785;-0.062814;0.013020;-0.078768;-0.493896;0.344238;0.639404;-0.174521;0.797811;0.169328;0.551695
29326;7.160586;-1.130222;-3.167106;-0.042711;0.027637;-0.064194;-0.501221;0.340820;0.645508;-0.173959;0.797721;0.169576;0.551928
29327;7.115702;-1.306172;-3.259704;-0.008043;0.018871;-0.037753;-0.488525;0.334961;0.642090;-0.173734;0.797658;0.169818;0.552014
29328;7.670991;-1.376310;-3.507311;0.024821;-0.013792;-0.006312;-0.491699;0.346191;0.639404;-0.173828;0.797750;0.170044;0.551783
29329;8.853400;-1.559938;-4.031587;0.049645;-0.036107;0.022706;-0.483643;0.348389;0.644287;-0.174204;0.797942;0.170230;0.551328
29330;10.642088;-1.853648;-4.453342;0.090145;0.001707;0.026768;-0.492188;0.346191;0.635498;-0.174913;0.797914;0.170512;0.551057
29331;11.370790;-2.115040;-4.649350;0.134448;0.092750;0.029596;-0.489502;0.342041;0.644043;-0.176056;0.797399;0.170848;0.551335
29332;11.374899;-2.252431;-4.539345;0.194688;0.147897;0.010872;-0.489258;0.344727;0.635498;-0.177583;0.796524;0.171490;0.551911
29333;11.900772;-2.331621;-4.743000;0.242655;0.175568;-0.019271;-0.498779;0.343262;0.635010;-0.179338;0.795399;0.172514;0.552645
29334;14.323871;-2.351107;-6.479796;0.281693;0.120450;-0.054650;-0.497559;0.348877;0.634521;-0.181100;0.794412;0.174029;0.553016
29335;15.635703;-1.734440;-6.599473;0.272443;0.103568;-0.134123;-0.491943;0.346924;0.635742;-0.182418;0.793403;0.176049;0.553392
29336;12.310001;-1.575554;-5.230274;0.237170;0.067315;-0.188928;-0.496582;0.363037;0.627197;-0.183185;0.792543;0.178309;0.553647
29337;10.063145;-0.880979;-3.647002;0.215385;-0.115153;-0.199363;-0.500000;0.351562;0.628174;-0.183533;0.792517;0.180841;0.552746
29338;8.347629;0.033626;-2.447768;0.170949;-0.279096;-0.242945;-0.496826;0.353516;0.631836;-0.183093;0.793245;0.183689;0.550907
29339;8.829869;0.510706;-2.431198;0.112275;-0.389040;-0.302033;-0.490967;0.347168;0.632080;-0.181831;0.794468;0.186823;0.548502
29340;10.355035;0.521526;-2.479023;0.095064;-0.342881;-0.355159;-0.482666;0.341553;0.636719;-0.180274;0.795411;0.190154;0.546501
29341;9.676341;0.670026;-2.530700;0.119172;-0.215870;-0.380119;-0.486816;0.358887;0.632812;-0.178952;0.795699;0.193558;0.545321
29342;8.950494;0.673083;-2.743322;0.167776;-0.145251;-0.364866;-0.493896;0.346191;0.638916;-0.178199;0.795581;0.197011;0.544502
29343;8.449416;0.703989;-3.004261;0.228860;-0.141493;-0.333662;-0.490723;0.353027;0.637451;-0.177937;0.795401;0.200505;0.543575
29344;8.606414;0.621182;-3.359524;0.283983;-0.167506;-0.295459;-0.486816;0.346924;0.631348;-0.178195;0.795311;0.204041;0.542305
29345;9.878248;0.464405;-3.710040;0.336068;-0.150878;-0.265731;-0.493652;0.354736;0.630371;-0.178946;0.795107;0.207587;0.541010
29346;10.702980;0.158955;-3.608457;0.390371;-0.020952;-0.219156;-0.488281;0.356445;0.634277;-0.180504;0.794295;0.210884;0.540409
29347;10.181844;0.129666;-3.248483;0.437720;0.133698;-0.168488;-0.493408;0.351562;0.630127;-0.182861;0.792810;0.213808;0.540648
29348;9.157019;0.206372;-3.016904;0.445885;0.229318;-0.135322;-0.491211;0.363770;0.624268;-0.185569;0.790923;0.216395;0.541459
29349;8.265728;0.282819;-2.950990;0.416617;0.228471;-0.117336;-0.498535;0.367188;0.616211;-0.188194;0.789105;0.218740;0.542263
29350;7.786208;0.256930;-2.884679;0.372959;0.155568;-0.106941;-0.496826;0.367188;0.613281;-0.190442;0.787681;0.220937;0.542657
29351;7.603893;0.227564;-2.900862;0.323887;0.059165;-0.099640;-0.493164;0.371826;0.613281;-0.192212;0.786786;0.223006;0.542485
29352;7.305910;0.215676;-2.924173;0.277250;-0.040782;-0.090612;-0.497070;0.370361;0.614258;-0.193533;0.786435;0.224961;0.541718
29353;6.940256;0.160388;-2.920666;0.242922;-0.145662;-0.084128;-0.494629;0.371826;0.614990;-0.194448;0.786615;0.226885;0.540324
29354;6.633454;0.029641;-2.934728;0.228163;-0.246145;-0.068645;-0.491943;0.369873;0.607178;-0.195148;0.787296;0.228803;0.538267
29355;6.564919;-0.122863;-3.022846;0.236085;-0.336241;-0.039232;-0.495117;0.368164;0.613525;-0.195863;0.788406;0.230717;0.535558
29356;6.602665;-0.158730;-3.126067;0.265424;-0.385975;-0.010515;-0.488770;0.380127;0.621094;-0.196780;0.789737;0.232642;0.532420
29357;6.701109;-0.017720;-3.152097;0.283769;-0.404026;-0.002148;-0.480713;0.382324;0.621094;-0.197841;0.791130;0.234621;0.529080
29358;6.734164;0.225976;-3.437943;0.276769;-0.404096;-0.018319;-0.480469;0.383789;0.619141;-0.198781;0.792491;0.236671;0.525766
29359;7.043223;0.534887;-3.781245;0.236537;-0.410027;-0.050139;-0.472656;0.387695;0.612793;-0.199301;0.793856;0.238771;0.522552
29360;6.830094;0.757348;-3.764607;0.167965;-0.410413;-0.074713;-0.472656;0.389648;0.618896;-0.199280;0.795267;0.240750;0.519498
29361;6.668280;0.787932;-3.707747;0.107607;-0.413813;-0.072680;-0.475586;0.386719;0.628906;-0.198843;0.796788;0.242450;0.516535
29362;7.329806;0.762377;-4.008886;0.070877;-0.406181;-0.049754;-0.469971;0.395020;0.626221;-0.198237;0.798379;0.243807;0.513665
29363;8.408309;0.806670;-4.542988;0.032121;-0.368856;-0.025347;-0.461426;0.389648;0.625732;-0.197600;0.799902;0.244803;0.511060
29364;9.261061;0.738120;-5.012679;-0.020715;-0.347212;0.004327;-0.455322;0.391357;0.630859;-0.196760;0.801483;0.245328;0.508651
29365;10.020240;0.640209;-5.294435;-0.059234;-0.328401;0.031747;-0.448486;0.390137;0.637695;-0.195817;0.803104;0.245472;0.506383
29366;10.752614;0.571688;-5.500923;-0.088595;-0.348885;0.055689;-0.445068;0.382568;0.631348;-0.194721;0.804914;0.245351;0.503985
29367;11.213073;0.520229;-5.556911;-0.111804;-0.373360;0.071484;-0.445068;0.393311;0.632080;-0.193474;0.806867;0.245076;0.501468
29368;12.314339;0.359612;-6.311528;-0.139500;-0.410964;0.091367;-0.436279;0.380371;0.644775;-0.192099;0.809031;0.244652;0.498711
29369;14.025936;0.101678;-7.093054;-0.155371;-0.436152;0.113683;-0.432617;0.382568;0.640381;-0.190572;0.811397;0.243983;0.495772
29370;13.822787;-0.200824;-7.039216;-0.168001;-0.407496;0.132927;-0.426270;0.387695;0.642090;-0.189134;0.813663;0.243124;0.493022
29371;12.619976;-0.628515;-6.173116;-0.149646;-0.426767;0.179306;-0.419678;0.387207;0.649902;-0.187998;0.816056;0.242072;0.490010
29372;9.495033;-1.711212;-3.611987;-0.071986;-0.352096;0.280560;-0.411133;0.384766;0.654541;-0.187932;0.818226;0.240509;0.487179
29373;7.574475;-2.288249;-2.916114;0.091435;-0.285883;0.435613;-0.411865;0.383545;0.657471;-0.189718;0.820179;0.238419;0.484221
29374;8.971942;-1.727785;-4.049972;0.175735;-0.283021;0.483764;-0.407715;0.389404;0.651123;-0.192249;0.822060;0.236313;0.481054
29375;10.332614;-1.688754;-4.442886;0.130540;-0.189896;0.444972;-0.392334;0.391113;0.653320;-0.194518;0.823531;0.234160;0.478674
29376;9.756484;-1.993142;-4.207762;0.052691;-0.032188;0.403520;-0.399170;0.398438;0.658447;-0.196384;0.824432;0.231694;0.477560
29377;9.298315;-2.252789;-4.381919;-0.011397;0.055648;0.352538;-0.395264;0.403564;0.661133;-0.197775;0.824969;0.229181;0.477270
29378;9.623565;-2.385569;-4.951870;-0.067049;0.074443;0.305403;-0.386963;0.403076;0.660889;-0.198639;0.825435;0.226732;0.477276
29379;9.841686;-2.077151;-5.062776;-0.121274;0.091915;0.235231;-0.399658;0.402832;0.657471;-0.198881;0.825799;0.224503;0.477599
29380;9.132526;-1.714148;-4.754436;-0.199200;0.126399;0.136085;-0.397705;0.414062;0.650391;-0.198256;0.825928;0.222615;0.478518
29381;8.446667;-1.311965;-4.483003;-0.275940;0.122839;0.016780;-0.390625;0.400391;0.653564;-0.196707;0.825949;0.221318;0.479722
29382;7.936755;-1.093577;-4.123579;-0.350206;0.116409;-0.106130;-0.394287;0.393066;0.652344;-0.194078;0.825924;0.220507;0.481208
29383;7.567635;-1.109564;-3.899516;-0.391450;0.120162;-0.184151;-0.394531;0.393799;0.652100;-0.190846;0.825791;0.220056;0.482932
29384;7.291776;-1.059120;-3.773311;-0.394806;0.125328;-0.226483;-0.398193;0.382812;0.662109;-0.187467;0.825546;0.219901;0.484741
29385;6.987514;-0.902060;-3.648942;-0.385975;0.133937;-0.244301;-0.403320;0.382324;0.661133;-0.184032;0.825232;0.219828;0.486620
29386;6.576751;-0.553196;-3.505486;-0.380437;0.138636;-0.254562;-0.408936;0.374756;0.654785;-0.180634;0.824842;0.219873;0.488531
29387;6.155861;-0.317910;-3.511022;-0.395678;0.126399;-0.260626;-0.415527;0.370117;0.672607;-0.177087;0.824484;0.219929;0.490406
29388;5.861028;-0.208050;-3.450133;-0.412919;0.101823;-0.255927;-0.413330;0.357910;0.666748;-0.173356;0.824273;0.219866;0.492118
29389;5.673387;-0.182792;-3.471227;-0.422957;0.064742;-0.237718;-0.411865;0.358643;0.664795;-0.169556;0.824248;0.219688;0.493562
29390;5.890165;-0.215606;-3.691995;-0.422962;0.029609;-0.207969;-0.407471;0.354248;0.676025;-0.165857;0.824398;0.219392;0.494699
29391;6.445501;-0.292321;-3.858084;-0.411591;0.016973;-0.172582;-0.421387;0.350586;0.680664;-0.162343;0.824662;0.218884;0.495648
29392;6.855436;-0.468090;-4.007241;-0.383633;0.034220;-0.120673;-0.424805;0.333740;0.666748;-0.159259;0.824881;0.218121;0.496620
29393;7.131711;-0.663056;-4.100167;-0.347692;0.061696;-0.056937;-0.412598;0.342285;0.677490;-0.156715;0.825025;0.217035;0.497664
29394;7.170364;-0.791590;-4.204325;-0.304158;0.076569;0.003251;-0.423584;0.339600;0.675293;-0.154789;0.825181;0.215702;0.498588
29395;7.208409;-0.753468;-4.447383;-0.272792;0.063164;0.040604;-0.416504;0.333984;0.672607;-0.153204;0.825394;0.214271;0.499341
29396;8.070570;-0.797087;-5.066290;-0.249721;0.006619;0.056156;-0.421143;0.328613;0.674316;-0.151733;0.825847;0.212885;0.499633
29397;9.784519;-1.127554;-5.417172;-0.222519;-0.027020;0.064778;-0.420410;0.332520;0.671387;-0.150406;0.826418;0.211580;0.499645
29398;11.010416;-1.496235;-5.619952;-0.159597;0.044549;0.080252;-0.425293;0.330811;0.670410;-0.149725;0.826631;0.210361;0.500012
29399;11.133797;-1.842222;-5.692025;-0.066768;0.125605;0.107061;-0.419189;0.324951;0.674561;-0.149926;0.826436;0.209230;0.500747
29400;11.006410;-1.974298;-5.549171;0.048060;0.158081;0.126883;-0.420166;0.326172;0.674805;-0.151038;0.826013;0.208367;0.501471
29401;11.258490;-1.994522;-5.084529;0.159596;0.153362;0.132728;-0.423584;0.333740;0.657959;-0.152936;0.825477;0.207931;0.501959
29402;11.695050;-2.157165;-5.155306;0.256857;0.200119;0.126422;-0.419678;0.338867;0.662109;-0.155578;0.824592;0.207910;0.502610
29403;15.509204;-2.157664;-8.033412;0.347750;-0.016019;0.138954;-0.418945;0.334961;0.668213;-0.158512;0.824520;0.208438;0.501592
29404;11.827663;-1.835704;-5.636079;0.366063;0.166342;0.012371;-0.427490;0.347656;0.667969;-0.161343;0.823440;0.209647;0.501960
29405;9.812939;-1.215950;-5.453228;0.424328;-0.311234;0.021925;-0.419434;0.348145;0.670654;-0.163788;0.824279;0.211681;0.498928
29406;6.046214;-0.056038;-3.378930;0.334893;-0.449521;-0.057917;-0.418213;0.344727;0.659424;-0.165033;0.825661;0.214065;0.495201
29407;5.954152;1.558299;-3.958833;0.137345;-0.816488;-0.153245;-0.408203;0.346924;0.664307;-0.163868;0.828620;0.216800;0.489422
29408;9.380788;1.522213;-4.169508;-0.112855;-0.844664;-0.321392;-0.410889;0.354248;0.672852;-0.160232;0.831686;0.219707;0.484099
29409;9.674448;1.226385;-3.791509;-0.246952;-0.613091;-0.435669;-0.404541;0.343262;0.672119;-0.155634;0.833735;0.222567;0.480758
29410;9.989015;0.974711;-3.935652;-0.269910;-0.284265;-0.483785;-0.395508;0.335693;0.683838;-0.151282;0.834375;0.225234;0.479793
29411;10.049582;0.557775;-4.339397;-0.191692;0.037655;-0.472344;-0.395508;0.334473;0.686035;-0.148109;0.833645;0.227700;0.480887
29412;9.997517;0.329513;-4.469956;-0.047960;0.311458;-0.418725;-0.402344;0.328857;0.672852;-0.146674;0.831725;0.230033;0.483533
29413;9.880085;0.322625;-4.507512;0.105946;0.515584;-0.334693;-0.410645;0.329834;0.680420;-0.147040;0.828927;0.232166;0.487195
29414;9.499775;0.278611;-4.129133;0.253043;0.642302;-0.263808;-0.417725;0.328857;0.670410;-0.148940;0.825553;0.234224;0.491343
29415;8.950294;0.186728;-3.648646;0.389232;0.714533;-0.210906;-0.427490;0.328857;0.664795;-0.152130;0.821781;0.236380;0.495638
29416;8.391694;0.158798;-3.493719;0.507584;0.707733;-0.178492;-0.434082;0.337646;0.654785;-0.156238;0.817910;0.238790;0.499592
29417;7.950266;0.254979;-3.478975;0.586716;0.617430;-0.162664;-0.437988;0.337891;0.656494;-0.160777;0.814297;0.241539;0.502723
29418;7.443399;0.285884;-3.406521;0.629537;0.460062;-0.151116;-0.453857;0.348877;0.641846;-0.165309;0.811286;0.244555;0.504659
29419;7.233908;0.316383;-3.429185;0.647814;0.274566;-0.120320;-0.454590;0.352051;0.644043;-0.169733;0.809040;0.247723;0.505250
29420;7.185745;0.395701;-3.387795;0.632099;0.122687;-0.084643;-0.452393;0.354248;0.634766;-0.173864;0.807519;0.250762;0.504780
29421;7.065004;0.430320;-3.425289;0.592709;0.003503;-0.044354;-0.453613;0.369385;0.633057;-0.177646;0.806617;0.253533;0.503520
29422;6.825753;0.438915;-3.383734;0.534383;-0.078364;-0.001906;-0.448975;0.376709;0.629639;-0.181058;0.806211;0.255907;0.501751
29423;6.748192;0.393603;-3.598471;0.462876;-0.140286;0.044123;-0.454102;0.376709;0.630615;-0.184053;0.806256;0.257765;0.499634
29424;6.928243;0.378658;-3.774515;0.387953;-0.177148;0.077169;-0.458740;0.381592;0.625977;-0.186576;0.806629;0.259125;0.497386
29425;6.994871;0.531906;-3.851899;0.290180;-0.174679;0.088211;-0.445801;0.382568;0.624023;-0.188500;0.807145;0.260020;0.495353
29426;7.120912;0.677464;-3.999693;0.179491;-0.158297;0.078958;-0.443604;0.391113;0.626953;-0.189672;0.807753;0.260481;0.493669
29427;7.224262;0.816905;-4.192662;0.062511;-0.131302;0.064764;-0.456543;0.390869;0.626221;-0.190068;0.808401;0.260522;0.492433
29428;7.132622;0.794070;-4.255594;-0.042797;-0.105747;0.062065;-0.444092;0.387939;0.630371;-0.189794;0.809083;0.260127;0.491627
29429;6.900590;0.803227;-4.169268;-0.126189;-0.096793;0.067059;-0.440186;0.392090;0.629639;-0.188978;0.809894;0.259307;0.491038
29430;7.053509;0.835370;-4.344486;-0.190540;-0.099766;0.073052;-0.442871;0.387695;0.636475;-0.187772;0.810821;0.258218;0.490546
29431;8.267587;0.792213;-4.900471;-0.235342;-0.090721;0.072956;-0.447998;0.383301;0.635254;-0.186251;0.811786;0.256902;0.490220
29432;9.846084;0.504938;-5.167777;-0.260710;-0.033948;0.076893;-0.443359;0.386230;0.632324;-0.184694;0.812546;0.255385;0.490342
29433;10.436860;0.549840;-5.280752;-0.262684;0.085494;0.095570;-0.447021;0.382568;0.631104;-0.183494;0.812842;0.253594;0.491231
29434;10.364439;0.588792;-5.331507;-0.271175;0.159923;0.106457;-0.437256;0.380371;0.625732;-0.182436;0.812855;0.251588;0.492633
29435;10.095043;0.418074;-5.449206;-0.263339;0.167859;0.136144;-0.438232;0.376953;0.630615;-0.181592;0.812880;0.249418;0.494005
29436;11.085738;0.239176;-6.386486;-0.254615;0.132776;0.200262;-0.438965;0.374512;0.628174;-0.180967;0.813180;0.246864;0.495023
29437;14.985162;0.138746;-7.553203;-0.234149;0.040871;0.261156;-0.440918;0.373291;0.627686;-0.180542;0.813941;0.244127;0.495285
29438;13.822481;-0.172766;-6.260928;-0.240100;0.274309;0.287972;-0.453125;0.373535;0.630615;-0.180658;0.813786;0.240835;0.497105
29439;11.665294;-0.440035;-4.258139;-0.218742;0.351178;0.345902;-0.447266;0.382080;0.621826;-0.181292;0.813379;0.237107;0.499327
29440;9.222461;-1.320204;-2.529676;-0.174837;0.419467;0.432632;-0.446289;0.374023;0.629150;-0.182788;0.812754;0.232942;0.501755
29441;8.348582;-1.896333;-2.733810;-0.092789;0.403976;0.542078;-0.446045;0.383545;0.627441;-0.185172;0.812307;0.228270;0.503748
29442;9.785056;-1.961767;-3.563746;-0.055317;0.276480;0.579033;-0.445068;0.385010;0.626953;-0.187750;0.812374;0.223726;0.504723
29443;9.502318;-2.157383;-3.335270;-0.072350;0.238412;0.537669;-0.452637;0.386475;0.628418;-0.189946;0.812536;0.219420;0.505529
29444;9.341785;-2.297687;-3.114736;-0.101751;0.183689;0.468401;-0.449951;0.387695;0.619141;-0.191527;0.812833;0.215519;0.506134
29445;9.400697;-2.413471;-3.191503;-0.128220;0.148110;0.349990;-0.438477;0.385498;0.626709;-0.192386;0.813084;0.212391;0.506727
29446;9.855532;-2.361888;-3.390028;-0.155677;0.141791;0.215939;-0.449707;0.383301;0.617432;-0.192448;0.813192;0.210001;0.507526
29447;10.321883;-2.022001;-3.443638;-0.192852;0.182942;0.069905;-0.450684;0.389404;0.627441;-0.191731;0.812898;0.208418;0.508919
29448;9.981555;-1.660542;-3.246944;-0.243006;0.263879;-0.076267;-0.451172;0.390625;0.626709;-0.190196;0.812091;0.207466;0.511167
29449;9.091917;-1.377434;-2.988462;-0.285454;0.307526;-0.193604;-0.450439;0.373779;0.616211;-0.187968;0.810948;0.207076;0.513956
29450;8.286019;-1.243921;-2.860521;-0.314176;0.298805;-0.278222;-0.466064;0.374756;0.619141;-0.185147;0.809729;0.207127;0.516873
29451;7.863725;-1.059417;-2.875365;-0.318579;0.257466;-0.328420;-0.467285;0.375488;0.623779;-0.182022;0.808581;0.207583;0.519590
29452;7.621406;-0.710327;-2.879589;-0.328378;0.202001;-0.358810;-0.467529;0.369629;0.624756;-0.178615;0.807623;0.208286;0.521976
29453;7.447353;-0.339148;-2.906159;-0.354372;0.156034;-0.380153;-0.473145;0.354980;0.621826;-0.174856;0.806855;0.209077;0.524115
29454;7.204790;-0.046922;-2.917102;-0.402132;0.120463;-0.386781;-0.479004;0.351074;0.616455;-0.170656;0.806286;0.209728;0.526112
29455;6.852816;0.136078;-2.929498;-0.453129;0.085655;-0.363658;-0.470947;0.347168;0.631104;-0.166191;0.805941;0.210105;0.527917
29456;6.724094;0.254656;-3.024655;-0.497596;0.051247;-0.307983;-0.480225;0.333740;0.630615;-0.161579;0.805919;0.209893;0.529464
29457;6.883197;0.346003;-3.134352;-0.540584;0.032052;-0.235217;-0.485107;0.330811;0.628662;-0.156942;0.806144;0.209014;0.530862
29458;7.147772;0.387226;-3.241131;-0.563770;0.046326;-0.159177;-0.484619;0.321289;0.636475;-0.152549;0.806426;0.207559;0.532283
29459;7.488770;0.211352;-3.248355;-0.571640;0.095347;-0.085562;-0.486084;0.316162;0.630615;-0.148477;0.806627;0.205461;0.533941
29460;7.978283;-0.093778;-3.264109;-0.534624;0.175252;-0.020117;-0.493896;0.302979;0.637695;-0.145118;0.806498;0.203041;0.535981
29461;8.324297;-0.509284;-3.314850;-0.459307;0.275865;0.047407;-0.491699;0.303711;0.628418;-0.142669;0.805949;0.200299;0.538490
29462;8.143802;-0.806229;-3.263052;-0.349502;0.350589;0.102124;-0.494385;0.309326;0.640137;-0.141393;0.804983;0.197675;0.541234
29463;7.636305;-0.933833;-3.203113;-0.227974;0.347088;0.124723;-0.507324;0.304199;0.624023;-0.141028;0.803928;0.195433;0.543706
29464;7.256855;-0.938079;-3.383470;-0.122279;0.263323;0.118897;-0.495361;0.298340;0.631348;-0.141236;0.803081;0.193860;0.545465
29465;7.624928;-0.971371;-3.683579;-0.040005;0.111943;0.090113;-0.503174;0.304199;0.625244;-0.141544;0.802822;0.192916;0.546100
29466;9.268678;-0.982433;-3.959765;0.027849;0.002574;0.043844;-0.509033;0.299561;0.635010;-0.141973;0.802879;0.192794;0.545949
29467;10.872563;-1.106414;-4.296897;0.075594;0.005871;-0.002452;-0.500000;0.304932;0.632080;-0.142449;0.802817;0.193106;0.545805
29468;11.149923;-1.211546;-4.193360;0.128348;0.063262;-0.028196;-0.503662;0.303711;0.629150;-0.143290;0.802383;0.193797;0.545979
29469;10.655150;-1.136432;-3.887414;0.176802;0.094418;-0.042915;-0.493652;0.310059;0.624268;-0.144429;0.801723;0.194761;0.546305
29470;11.230686;-1.032867;-4.618416;0.209567;0.079101;-0.058852;-0.502686;0.309570;0.617188;-0.145725;0.801058;0.196032;0.546481
29471;15.551064;-0.698268;-6.019584;0.216440;-0.012873;-0.104733;-0.499023;0.314697;0.632812;-0.146711;0.800716;0.197763;0.546095
29472;15.324176;-1.040425;-5.851927;0.209016;0.249810;-0.134658;-0.506592;0.307129;0.625488;-0.147908;0.799160;0.199278;0.547499
29473;14.146420;-0.701129;-4.773237;0.225258;0.304718;-0.108171;-0.516602;0.308594;0.620605;-0.149389;0.797377;0.200583;0.549217
29474;9.664222;-0.114563;-2.753227;0.211638;0.325963;-0.105757;-0.512451;0.315674;0.618652;-0.150835;0.795501;0.201797;0.551094
29475;7.776898;1.423219;-1.806736;0.093285;0.183884;-0.179570;-0.517334;0.309326;0.610840;-0.150938;0.794294;0.203151;0.552308
29476;7.532185;2.008628;-1.842367;-0.116773;0.072517;-0.335629;-0.514893;0.312012;0.612305;-0.148734;0.793590;0.204709;0.553343
29477;8.988444;1.465854;-2.255235;-0.259372;-0.018902;-0.434157;-0.526367;0.309082;0.621338;-0.145002;0.793297;0.206402;0.554123
29478;8.803301;0.780966;-2.287529;-0.269889;0.010048;-0.446664;-0.529297;0.289551;0.620605;-0.141184;0.792847;0.208089;0.555121
29479;8.542777;0.443283;-2.589448;-0.165336;0.011651;-0.372593;-0.533936;0.293213;0.621582;-0.138336;0.792404;0.209692;0.555867
29480;8.967320;0.447659;-3.038298;-0.023334;-0.003490;-0.263987;-0.524658;0.291016;0.618652;-0.136953;0.792029;0.211314;0.556129
29481;9.724372;0.716608;-3.280778;0.094970;0.017392;-0.168605;-0.528076;0.294922;0.618408;-0.136836;0.791589;0.212833;0.556206
29482;10.704790;0.947933;-3.325375;0.162241;0.108844;-0.107445;-0.528320;0.291992;0.613770;-0.137633;0.790743;0.214186;0.556693
29483;10.970219;0.876219;-2.928858;0.206290;0.286647;-0.080625;-0.531738;0.297607;0.611816;-0.139151;0.789066;0.215352;0.558244
29484;10.346634;0.857275;-2.623216;0.244324;0.462402;-0.065928;-0.540283;0.289795;0.611572;-0.141319;0.786536;0.216411;0.560854
29485;9.517685;0.850061;-2.446004;0.268418;0.558892;-0.052058;-0.553711;0.303467;0.602539;-0.143798;0.783565;0.217277;0.564038
29486;8.598443;0.737800;-2.349964;0.282930;0.562368;-0.012021;-0.555176;0.303467;0.601562;-0.146658;0.780569;0.218055;0.567146
29487;8.162303;0.774027;-2.395010;0.287740;0.478783;0.040975;-0.556885;0.296143;0.592529;-0.149595;0.778065;0.218544;0.569626
29488;8.016807;0.757468;-2.280697;0.276945;0.371648;0.105548;-0.563721;0.311523;0.584961;-0.152509;0.776207;0.218627;0.571354
29489;7.778698;0.596863;-2.069699;0.257927;0.274611;0.180183;-0.556885;0.313232;0.586914;-0.155577;0.774919;0.218373;0.572372
29490;7.529901;0.501354;-1.975371;0.246816;0.187472;0.254066;-0.565918;0.322754;0.576660;-0.158708;0.774218;0.217624;0.572747
29491;7.522736;0.366279;-2.009823;0.227396;0.115898;0.304870;-0.564209;0.323730;0.579102;-0.161905;0.773925;0.216648;0.572618
29492;7.613883;0.170323;-2.120297;0.224460;0.065277;0.322570;-0.567627;0.324707;0.581787;-0.165016;0.773927;0.215542;0.572144
29493;7.861508;0.066339;-2.179477;0.219118;0.035809;0.316852;-0.561035;0.333252;0.577881;-0.167957;0.774078;0.214427;0.571502
29494;8.005800;0.037939;-2.181971;0.215764;0.030982;0.284831;-0.554688;0.340088;0.573242;-0.170748;0.774180;0.213543;0.570867
29495;8.084311;0.070236;-2.124486;0.201935;0.045520;0.226469;-0.556396;0.337402;0.576904;-0.173228;0.774113;0.212978;0.570422
29496;7.904528;0.109594;-2.218460;0.185332;0.051857;0.158142;-0.555664;0.342529;0.582764;-0.175204;0.773945;0.212675;0.570159
29497;7.826003;0.219865;-2.167934;0.164068;0.024465;0.087354;-0.555176;0.343018;0.564697;-0.176622;0.773831;0.212722;0.569860
29498;7.499121;0.588006;-2.210515;0.118791;-0.027898;0.022675;-0.556885;0.343506;0.574219;-0.177452;0.773860;0.213178;0.569391
29499;8.136920;0.902356;-2.365843;0.044154;-0.091442;-0.029440;-0.552490;0.343262;0.576416;-0.177363;0.774244;0.213620;0.568731
29500;8.942774;0.849111;-2.698175;-0.041072;-0.114092;-0.050841;-0.557129;0.341064;0.570312;-0.176562;0.774832;0.213804;0.568110
29501;9.787919;0.710158;-3.009670;-0.102624;-0.114886;-0.046810;-0.552246;0.346680;0.577148;-0.175439;0.775487;0.213753;0.567583
29502;10.810138;0.570848;-3.288559;-0.132197;-0.108886;-0.019290;-0.561523;0.349609;0.579590;-0.174267;0.776212;0.213363;0.567100
29503;10.647090;0.503874;-3.127518;-0.147632;-0.057004;0.022502;-0.558838;0.344971;0.581543;-0.173326;0.776764;0.212610;0.566916
29504;9.834737;0.491052;-2.926606;-0.155981;-0.076794;0.060685;-0.549805;0.348389;0.583984;-0.172442;0.777500;0.211562;0.566568
29505;11.144165;0.465662;-3.833453;-0.165407;-0.181457;0.089769;-0.547119;0.338867;0.578857;-0.171462;0.778795;0.210432;0.565507
29506;13.828279;0.286397;-4.496135;-0.186131;-0.197370;0.079936;-0.547607;0.341553;0.579590;-0.170273;0.780163;0.209308;0.564396
29507;15.408120;0.155465;-4.735028;-0.192717;-0.100168;0.052620;-0.541016;0.340088;0.587646;-0.169135;0.781009;0.208256;0.563957
29508;13.889218;-0.224809;-3.513039;-0.195529;0.133735;0.025727;-0.553223;0.339600;0.589355;-0.168193;0.780743;0.206951;0.565087
29509;11.057888;-0.799174;-2.347968;-0.122633;0.163208;0.053959;-0.541016;0.342529;0.581543;-0.167921;0.780268;0.205787;0.566247
29510;9.365370;-1.370360;-1.898294;-0.005704;0.053225;0.132846;-0.546387;0.343506;0.578613;-0.168668;0.780261;0.204886;0.566362
29511;8.521207;-1.578641;-1.092243;0.121918;-0.062777;0.217643;-0.542480;0.341309;0.586914;-0.170478;0.780745;0.204240;0.565385
29512;7.216252;-1.289862;-0.974345;0.197483;-0.196977;0.266537;-0.551270;0.344238;0.588623;-0.172650;0.781887;0.203664;0.563352
29513;7.634825;-0.922018;-1.628281;0.174773;-0.384208;0.247308;-0.543213;0.344238;0.588379;-0.174261;0.783889;0.203380;0.560168
29514;8.197293;-0.836188;-2.107668;0.082613;-0.501300;0.202111;-0.537598;0.348877;0.598145;-0.174840;0.786485;0.203108;0.556434
29515;8.592678;-0.781508;-2.453679;-0.033707;-0.569440;0.150175;-0.537354;0.343506;0.595947;-0.174264;0.789477;0.202686;0.552518
29516;9.089524;-0.936499;-2.706887;-0.152846;-0.553209;0.101093;-0.523438;0.354492;0.596924;-0.172730;0.792442;0.202061;0.548972
29517;10.125360;-1.169464;-3.214891;-0.223414;-0.479139;0.077674;-0.511719;0.355225;0.614502;-0.170894;0.795063;0.201314;0.546024
29518;10.955422;-1.115321;-3.283306;-0.273274;-0.325805;0.055755;-0.524902;0.346191;0.609863;-0.168766;0.797065;0.200106;0.544208
29519;11.143640;-0.880237;-3.046570;-0.319650;-0.115402;0.031588;-0.513916;0.351318;0.612793;-0.166632;0.798084;0.198657;0.543904
29520;10.808279;-0.788986;-2.813018;-0.358705;0.101037;0.002520;-0.510498;0.340820;0.612793;-0.164526;0.798107;0.196974;0.545122
29521;10.094499;-0.779797;-2.606091;-0.382843;0.270924;-0.025225;-0.513916;0.344727;0.616211;-0.162332;0.797366;0.195037;0.547554
29522;9.410072;-0.838615;-2.530846;-0.380504;0.352704;-0.028153;-0.521240;0.336670;0.609375;-0.160333;0.796212;0.193080;0.550509
29523;8.880831;-0.770064;-2.477349;-0.360372;0.371419;-0.032364;-0.530273;0.328857;0.614502;-0.158492;0.794910;0.191240;0.553557
