// Start Time: Unknown
// Update Rate: 60.0Hz
// Filter Profile: human (46.1)
// Firmware Version: 4.4.0
PacketCounter;Acc_X;Acc_Y;Acc_Z;Gyr_X;Gyr_Y;Gyr_Z;Mag_X;Mag_Y;Mag_Z;Quat_q0;Quat_q1;Quat_q2;Quat_q3
28597;9.831744;0.856020;-0.639674;0.014387;0.016753;-0.028157;-0.577881;-0.385986;0.427490;-0.272263;-0.691955;0.231523;-0.627270
28598;9.762749;0.823204;-0.671942;-0.021475;0.008126;-0.025875;-0.577637;-0.383545;0.428955;-0.272537;-0.691914;0.231468;-0.627217
28599;9.629669;0.646347;-0.696773;-0.025928;-0.010626;-0.024182;-0.585938;-0.385010;0.437744;-0.272789;-0.691958;0.231488;-0.627051
28600;9.694173;0.545669;-0.660614;-0.003973;-0.027746;-0.012879;-0.579102;-0.385742;0.440918;-0.272823;-0.692119;0.231500;-0.626854
28601;9.805147;0.711247;-0.603153;0.023047;-0.026301;-0.016481;-0.574219;-0.375732;0.427490;-0.272718;-0.692340;0.231352;-0.626711
28602;9.843820;0.832625;-0.537560;0.017862;-0.001435;-0.023057;-0.579590;-0.383301;0.433350;-0.272722;-0.692429;0.231139;-0.626690
28603;9.776361;0.744175;-0.539000;0.005060;0.013083;-0.028805;-0.579102;-0.388672;0.431396;-0.272859;-0.692421;0.230926;-0.626718
28604;9.754936;0.597314;-0.535273;0.011271;0.017574;-0.028424;-0.578125;-0.377686;0.434570;-0.272963;-0.692397;0.230676;-0.626790
28605;9.771784;0.623175;-0.622156;0.042889;0.018162;-0.018170;-0.582031;-0.388184;0.437256;-0.272824;-0.692415;0.230328;-0.626959
28606;9.840864;0.780650;-0.690455;0.054597;0.015593;-0.013198;-0.589111;-0.392334;0.431396;-0.272575;-0.692459;0.229965;-0.627152
28607;9.879843;0.959771;-0.673111;0.025904;0.014250;-0.012343;-0.577637;-0.390869;0.425049;-0.272478;-0.692444;0.229764;-0.627284
28608;9.796327;0.921618;-0.622038;-0.016989;0.018177;-0.014342;-0.576660;-0.385986;0.434326;-0.272652;-0.692319;0.229763;-0.627347
28609;9.709451;0.742334;-0.564836;-0.042569;0.021915;-0.008712;-0.578369;-0.389160;0.431885;-0.272955;-0.692106;0.229915;-0.627394
28610;9.712124;0.645721;-0.590465;-0.033181;0.011480;-0.008695;-0.574219;-0.385742;0.430176;-0.273178;-0.691963;0.230048;-0.627406
28611;9.780173;0.696092;-0.647399;-0.017321;0.005872;0.001573;-0.586426;-0.381592;0.430176;-0.273233;-0.691861;0.230183;-0.627446
28612;9.806495;0.799822;-0.656305;-0.021130;0.002276;0.003468;-0.579102;-0.387939;0.424072;-0.273276;-0.691761;0.230370;-0.627468
28613;9.815608;0.865293;-0.587949;-0.045383;0.019046;0.005896;-0.586670;-0.386719;0.432129;-0.273483;-0.691517;0.230664;-0.627540
28614;9.757915;0.838563;-0.517481;-0.077684;0.052983;-0.000789;-0.585693;-0.386963;0.421631;-0.273966;-0.691030;0.231007;-0.627739
28615;9.774368;0.713406;-0.519268;-0.082927;0.061669;-0.012766;-0.574463;-0.390625;0.429932;-0.274572;-0.690503;0.231292;-0.627949
28616;9.787743;0.700595;-0.584587;-0.062614;0.059687;-0.022252;-0.583740;-0.393799;0.426025;-0.275110;-0.690050;0.231409;-0.628168
28617;9.801024;0.853627;-0.587356;-0.063773;0.049355;-0.028322;-0.581543;-0.393555;0.426514;-0.275643;-0.689647;0.231546;-0.628327
28618;9.733389;0.884253;-0.559520;-0.078877;0.038316;-0.033301;-0.574951;-0.395996;0.424561;-0.276272;-0.689282;0.231751;-0.628375
28619;9.681208;0.726168;-0.600714;-0.079427;0.029242;-0.033705;-0.581543;-0.382324;0.427979;-0.276915;-0.688975;0.231966;-0.628350
28620;9.689261;0.795408;-0.634765;-0.073659;0.030969;-0.038551;-0.590332;-0.388916;0.428467;-0.277511;-0.688694;0.232110;-0.628342
28621;9.709592;0.925004;-0.548616;-0.101305;0.036147;-0.031271;-0.586670;-0.392090;0.423340;-0.278202;-0.688292;0.232454;-0.628350
28622;9.753528;0.855722;-0.425914;-0.133671;0.020221;-0.037088;-0.576904;-0.391846;0.427002;-0.279111;-0.687913;0.232969;-0.628170
28623;9.820172;0.732319;-0.430687;-0.144873;0.014435;-0.040527;-0.578613;-0.387695;0.424316;-0.280120;-0.687563;0.233493;-0.627910
28624;9.728369;0.709991;-0.482963;-0.135974;0.031889;-0.054897;-0.588379;-0.389160;0.421631;-0.281174;-0.687162;0.233856;-0.627743
28625;9.702886;0.768480;-0.437657;-0.131390;0.019734;-0.059482;-0.581787;-0.391357;0.419189;-0.282154;-0.686815;0.234235;-0.627542
28626;9.830210;0.774053;-0.444120;-0.119402;0.003513;-0.064702;-0.589355;-0.399170;0.413818;-0.283095;-0.686596;0.234551;-0.627239
28627;9.908887;0.774767;-0.382679;-0.123234;0.013044;-0.070887;-0.590820;-0.398926;0.422119;-0.284092;-0.686286;0.234883;-0.627004
28628;9.937127;0.702184;-0.394206;-0.130807;0.013229;-0.059135;-0.573975;-0.393311;0.418701;-0.285007;-0.685938;0.235282;-0.626819
28629;9.808501;0.488531;-0.483640;-0.090724;0.015984;-0.052969;-0.579102;-0.399902;0.413330;-0.285765;-0.685713;0.235450;-0.626658
28630;9.703438;0.465217;-0.476773;-0.026554;0.012054;-0.047582;-0.585449;-0.404541;0.416504;-0.286095;-0.685603;0.235405;-0.626644
28631;9.788389;0.520869;-0.435228;0.029883;0.006345;-0.049904;-0.586182;-0.401855;0.413330;-0.286021;-0.685631;0.235099;-0.626762
28632;9.810890;0.689651;-0.364565;0.071862;0.014891;-0.047280;-0.573730;-0.399902;0.423096;-0.285708;-0.685698;0.234600;-0.627018
28633;9.722885;0.855597;-0.400034;0.087083;0.023178;-0.029221;-0.589355;-0.404053;0.415771;-0.285237;-0.685799;0.233983;-0.627353
28634;9.723184;0.811073;-0.546817;0.084326;0.012612;-0.008141;-0.576172;-0.404053;0.416260;-0.284609;-0.685804;0.233655;-0.627754
28635;9.791714;0.665052;-0.570054;0.103073;0.017332;0.006248;-0.581543;-0.397705;0.414307;-0.283928;-0.685867;0.233247;-0.628145
28636;9.669910;0.543964;-0.532820;0.148015;-0.003257;0.014580;-0.590332;-0.402588;0.416748;-0.282863;-0.686120;0.232728;-0.628543
28637;9.659753;0.625029;-0.446576;0.189948;-0.039184;0.017113;-0.577393;-0.400146;0.416016;-0.281381;-0.686594;0.232141;-0.628907
28638;9.713514;0.778609;-0.460897;0.203105;-0.051716;0.010795;-0.577148;-0.398682;0.422119;-0.279990;-0.687233;0.231455;-0.629083
28639;9.757550;0.910988;-0.481325;0.191137;-0.032607;-0.003788;-0.580566;-0.394043;0.422607;-0.278730;-0.687788;0.230649;-0.629331
28640;9.792358;0.825592;-0.470225;0.159496;-0.022844;-0.009127;-0.579346;-0.394775;0.422363;-0.277670;-0.688222;0.229951;-0.629581
28641;9.806074;0.659739;-0.475743;0.156751;-0.025757;-0.005286;-0.581543;-0.396973;0.421631;-0.276648;-0.688648;0.229313;-0.629798
28642;9.858057;0.691037;-0.471939;0.176955;-0.040604;-0.006366;-0.580078;-0.394775;0.425049;-0.275504;-0.689159;0.228647;-0.629982
28643;9.797000;0.851864;-0.540059;0.198123;-0.034960;-0.006413;-0.584473;-0.386475;0.427246;-0.274233;-0.689708;0.227820;-0.630235
28644;9.804109;0.944471;-0.561760;0.172955;-0.032577;-0.001261;-0.588379;-0.380371;0.430664;-0.272983;-0.690192;0.227101;-0.630509
28645;9.823493;0.867633;-0.558835;0.135314;-0.012139;-0.004633;-0.579346;-0.389160;0.435059;-0.271903;-0.690505;0.226455;-0.630865
28646;9.784981;0.812200;-0.448075;0.127394;0.005718;-0.013244;-0.578613;-0.387207;0.431885;-0.271077;-0.690752;0.225740;-0.631206
28647;9.749871;0.871257;-0.388878;0.126478;0.005805;-0.014531;-0.583252;-0.398193;0.427002;-0.270340;-0.690981;0.225068;-0.631511
28648;9.782456;0.948293;-0.414418;0.106154;0.017154;-0.007034;-0.575928;-0.381104;0.438232;-0.269836;-0.690969;0.224672;-0.631880
28649;9.774394;1.003596;-0.477833;0.074376;0.020151;-0.006943;-0.584961;-0.384033;0.438477;-0.269311;-0.691067;0.224149;-0.632183
28650;9.736085;0.864371;-0.535288;0.035986;0.018563;-0.000253;-0.579346;-0.380615;0.432129;-0.268895;-0.691006;0.223900;-0.632515
28651;9.676566;0.753445;-0.515903;0.017608;0.009376;0.014173;-0.582764;-0.378662;0.433350;-0.268668;-0.690925;0.223927;-0.632690
28652;9.711571;0.788631;-0.495147;0.016553;-0.001032;0.008176;-0.575439;-0.382568;0.432861;-0.268380;-0.690905;0.223926;-0.632834
28653;9.726744;0.932243;-0.458426;0.002084;-0.003166;0.003531;-0.590332;-0.384521;0.424316;-0.268335;-0.690899;0.223996;-0.632836
28654;9.769195;0.983477;-0.519342;-0.038985;0.000459;-0.000727;-0.577637;-0.385254;0.427734;-0.268574;-0.690611;0.224419;-0.632899
28655;9.794740;0.908305;-0.475708;-0.072851;0.009790;-0.001280;-0.577881;-0.389160;0.436768;-0.269116;-0.690317;0.224905;-0.632816
28656;9.820440;0.770803;-0.483472;-0.080144;0.023622;-0.012078;-0.580322;-0.388672;0.434326;-0.269631;-0.690029;0.225195;-0.632808
28657;9.797462;0.688935;-0.474898;-0.060531;0.022815;-0.016176;-0.584961;-0.387939;0.435059;-0.270046;-0.689773;0.225381;-0.632845
28658;9.785833;0.666043;-0.456195;-0.042423;0.011765;-0.023941;-0.587646;-0.389160;0.430420;-0.270282;-0.689618;0.225431;-0.632895
28659;9.774034;0.659357;-0.426004;-0.034274;0.001612;-0.022839;-0.576660;-0.387451;0.430420;-0.270508;-0.689471;0.225540;-0.632919
28660;9.822066;0.729862;-0.439893;-0.033091;0.007562;-0.013261;-0.582275;-0.381836;0.428955;-0.270780;-0.689361;0.225664;-0.632879
28661;9.912942;0.777211;-0.474038;-0.024845;0.012492;-0.015724;-0.576172;-0.389893;0.429443;-0.270913;-0.689215;0.225715;-0.632962
28662;9.873740;0.841674;-0.463402;-0.027008;0.022206;-0.018005;-0.574951;-0.385254;0.427002;-0.271237;-0.689043;0.225762;-0.632994
28663;9.749474;0.829965;-0.411267;-0.035773;0.012180;-0.020885;-0.582520;-0.391846;0.428467;-0.271599;-0.688912;0.225869;-0.632943
28664;9.730144;0.787648;-0.418966;-0.040876;0.012125;-0.019729;-0.578613;-0.388672;0.426758;-0.271946;-0.688714;0.226010;-0.632959
28665;9.706831;0.780408;-0.451897;-0.041224;0.017281;-0.015728;-0.578613;-0.393311;0.428955;-0.272303;-0.688506;0.226163;-0.632978
28666;9.759039;0.799632;-0.451009;-0.038499;0.019145;-0.017618;-0.583740;-0.382812;0.425781;-0.272665;-0.688314;0.226267;-0.632994
28667;9.741424;0.807591;-0.438273;-0.042355;0.009873;-0.014132;-0.584229;-0.389648;0.424805;-0.272851;-0.688125;0.226420;-0.633064
28668;9.695100;0.746811;-0.442980;-0.045315;-0.005142;-0.018437;-0.577393;-0.386230;0.433105;-0.273157;-0.687986;0.226638;-0.633006
28669;9.660194;0.712770;-0.464772;-0.032796;-0.013103;-0.015122;-0.583252;-0.389893;0.425293;-0.273192;-0.688072;0.226677;-0.632883
28670;9.758129;0.810977;-0.450444;-0.024581;-0.020537;-0.012543;-0.576172;-0.395264;0.427979;-0.273304;-0.688064;0.226846;-0.632782
28671;9.788059;0.917434;-0.430249;-0.028918;-0.010553;-0.015154;-0.579834;-0.392822;0.428711;-0.273565;-0.688069;0.226975;-0.632618
28672;9.780341;0.885050;-0.470018;-0.044934;-0.005691;-0.011418;-0.583496;-0.396484;0.422607;-0.273812;-0.687995;0.227173;-0.632521
28673;9.821939;0.755439;-0.458651;-0.050517;0.004059;-0.014441;-0.579590;-0.391357;0.419189;-0.274261;-0.687756;0.227460;-0.632483
28674;9.763875;0.715008;-0.407338;-0.043742;0.007591;-0.019231;-0.582275;-0.386719;0.421387;-0.274714;-0.687532;0.227696;-0.632445
28675;9.781169;0.713417;-0.416540;-0.011603;-0.003418;-0.020231;-0.584473;-0.391357;0.419678;-0.274792;-0.687469;0.227714;-0.632473
28676;9.804144;0.723559;-0.488414;0.013334;-0.011299;-0.023575;-0.587158;-0.395264;0.420166;-0.274816;-0.687460;0.227645;-0.632497
28677;9.784013;0.771280;-0.526110;0.017725;-0.009760;-0.018079;-0.574951;-0.396973;0.431396;-0.274817;-0.687416;0.227592;-0.632564
28678;9.849030;0.636045;-0.495690;0.050181;-0.017507;-0.012390;-0.575439;-0.390869;0.429688;-0.274515;-0.687701;0.227277;-0.632498
28679;9.989303;0.556774;-0.405686;0.128145;-0.014660;0.004005;-0.583008;-0.389160;0.432129;-0.273612;-0.688104;0.226639;-0.632680
28680;10.119733;0.715841;-0.322744;0.187097;0.015210;0.004826;-0.582275;-0.392090;0.416992;-0.272305;-0.688440;0.225606;-0.633247
28681;9.873401;0.701449;-0.336405;0.204020;0.036069;-0.041508;-0.583496;-0.390381;0.428467;-0.271612;-0.688574;0.224430;-0.633817
28682;9.575211;0.435144;-0.529392;0.271590;-0.001016;-0.070854;-0.581299;-0.388672;0.428467;-0.270365;-0.689239;0.222645;-0.634257
28683;9.492357;0.347426;-0.632176;0.316878;-0.032304;-0.048315;-0.580566;-0.378906;0.428711;-0.268719;-0.690119;0.220846;-0.634628
28684;9.367397;0.673944;-0.661041;0.333297;-0.048932;-0.019678;-0.574707;-0.384766;0.444092;-0.266679;-0.691069;0.219151;-0.635043
28685;9.398309;1.078299;-0.679556;0.290824;-0.078186;-0.003709;-0.580322;-0.382080;0.441162;-0.264695;-0.692225;0.217706;-0.635110
28686;9.589161;1.262743;-0.629674;0.197640;-0.095674;0.000418;-0.581055;-0.381836;0.436279;-0.263242;-0.693144;0.216883;-0.634993
28687;9.786935;1.251680;-0.482622;0.099954;-0.069624;-0.009978;-0.568604;-0.387207;0.438721;-0.262620;-0.693628;0.216562;-0.634832
28688;9.861518;1.156634;-0.437169;0.032721;-0.028551;-0.016981;-0.569336;-0.376221;0.435547;-0.262710;-0.693853;0.216482;-0.634576
28689;9.823729;1.019464;-0.496004;0.002908;0.004452;-0.031248;-0.572998;-0.373291;0.446289;-0.262955;-0.693842;0.216389;-0.634519
28690;9.712331;0.874905;-0.589586;-0.000307;0.024492;-0.034277;-0.578369;-0.374023;0.437988;-0.262955;-0.693841;0.216077;-0.634626
28691;9.702919;0.840507;-0.602829;0.002686;0.026831;-0.026380;-0.571777;-0.380127;0.442383;-0.263024;-0.693672;0.215898;-0.634843
28692;9.935655;0.965899;-0.663793;0.007560;0.033663;-0.015623;-0.579102;-0.381836;0.442871;-0.263111;-0.693554;0.215717;-0.634998
28693;9.933641;1.122336;-0.633538;-0.042812;0.044183;-0.012541;-0.585205;-0.381348;0.434814;-0.263440;-0.693216;0.215785;-0.635207
28694;9.854174;0.989948;-0.676521;-0.078853;0.015501;-0.004605;-0.578369;-0.377686;0.438232;-0.263961;-0.692803;0.216236;-0.635288
28695;9.803707;0.744058;-0.633692;-0.096758;-0.010455;0.003222;-0.576172;-0.381836;0.437256;-0.264397;-0.692596;0.216814;-0.635135
28696;9.732066;0.605086;-0.580175;-0.082990;-0.030491;0.001661;-0.581299;-0.387695;0.435547;-0.264825;-0.692530;0.217383;-0.634834
28697;9.713355;0.676675;-0.522975;-0.037650;-0.037178;-0.020754;-0.575195;-0.381104;0.432617;-0.265176;-0.692569;0.217635;-0.634559
28698;9.657897;0.741183;-0.439205;0.002314;-0.030230;-0.027638;-0.577393;-0.384766;0.434814;-0.265312;-0.692696;0.217633;-0.634364
28699;9.733571;0.817963;-0.498985;0.016397;-0.022615;-0.023730;-0.565918;-0.387207;0.441162;-0.265365;-0.692803;0.217548;-0.634253
28700;9.783560;0.928358;-0.533034;0.017762;-0.008240;-0.029853;-0.583984;-0.386719;0.438965;-0.265512;-0.693002;0.217352;-0.634043
28701;9.775370;1.022231;-0.594535;0.008447;-0.004962;-0.032652;-0.583740;-0.389648;0.440918;-0.265583;-0.693005;0.217162;-0.634074
28702;9.769323;0.993917;-0.653303;-0.017016;-0.001295;-0.021299;-0.573486;-0.383545;0.445312;-0.265771;-0.692932;0.217155;-0.634078
28703;9.777241;0.968289;-0.667621;-0.044846;-0.004827;-0.007279;-0.570068;-0.379883;0.438477;-0.265931;-0.692938;0.217322;-0.633947
28704;9.745579;0.893497;-0.641162;-0.053746;-0.013716;-0.001144;-0.583496;-0.375732;0.437012;-0.266163;-0.692913;0.217653;-0.633763
28705;9.811426;0.806549;-0.567001;-0.045043;-0.015595;-0.002465;-0.568848;-0.392334;0.435303;-0.266159;-0.692819;0.217902;-0.633782
28706;9.774277;0.830872;-0.514865;-0.030305;-0.003292;-0.010099;-0.578613;-0.390625;0.438965;-0.266615;-0.692754;0.218122;-0.633586
28707;9.791372;0.844074;-0.511564;-0.018025;-0.000460;-0.015151;-0.566406;-0.388672;0.437256;-0.266827;-0.692693;0.218165;-0.633548
28708;9.707942;0.815959;-0.555227;-0.012808;0.001913;-0.031591;-0.570312;-0.386963;0.434082;-0.267197;-0.692732;0.218116;-0.633366
28709;9.714001;0.789693;-0.548454;-0.011319;0.006261;-0.032434;-0.577881;-0.389893;0.432861;-0.267539;-0.692692;0.218056;-0.633287
28710;9.752800;0.874533;-0.561989;-0.002984;0.012755;-0.026954;-0.579834;-0.382080;0.439697;-0.267804;-0.692556;0.217968;-0.633354
28711;9.816375;0.874003;-0.618237;0.004385;0.014276;-0.024396;-0.577881;-0.386963;0.437012;-0.267725;-0.692514;0.217741;-0.633511
28712;9.749147;0.821506;-0.662594;0.015195;0.015511;-0.027107;-0.574463;-0.379150;0.436523;-0.267756;-0.692467;0.217494;-0.633634
28713;9.697292;0.891786;-0.613194;0.022193;-0.001036;-0.021400;-0.575439;-0.385254;0.434814;-0.267572;-0.692550;0.217257;-0.633702
28714;9.695639;0.974687;-0.548208;0.011070;-0.003174;-0.014511;-0.571289;-0.389648;0.439697;-0.267555;-0.692564;0.217170;-0.633725
28715;9.717159;0.969050;-0.505262;-0.017985;0.004984;-0.012173;-0.577393;-0.386719;0.440186;-0.267750;-0.692542;0.217209;-0.633653
28716;9.791942;0.915470;-0.517094;-0.024796;0.005100;-0.003051;-0.576660;-0.385498;0.437744;-0.267810;-0.692460;0.217301;-0.633685
28717;9.861793;0.912037;-0.541699;-0.023383;0.009907;-0.002479;-0.574951;-0.385498;0.439453;-0.267888;-0.692336;0.217399;-0.633754
28718;9.775619;0.935088;-0.616705;-0.025787;0.017914;-0.008169;-0.574219;-0.389648;0.438232;-0.268008;-0.692211;0.217442;-0.633826
28719;9.649595;0.926936;-0.636987;-0.039256;0.011773;-0.011100;-0.579102;-0.389160;0.439941;-0.268301;-0.692082;0.217575;-0.633796
28720;9.662023;0.820446;-0.536349;-0.042492;-0.001177;-0.003487;-0.575684;-0.382568;0.437012;-0.268459;-0.691995;0.217765;-0.633759
28721;9.859364;0.769175;-0.485186;-0.033599;-0.001544;0.003141;-0.570557;-0.391357;0.437256;-0.268489;-0.691918;0.217969;-0.633760
28722;9.965001;0.821766;-0.497522;-0.024073;0.011284;0.008799;-0.573975;-0.393555;0.434326;-0.268637;-0.691812;0.218146;-0.633752
28723;9.835647;0.881502;-0.537795;-0.015784;0.024347;0.000079;-0.575439;-0.392822;0.438721;-0.268855;-0.691615;0.218225;-0.633848
28724;9.671135;0.775844;-0.555959;-0.016232;0.015864;-0.003457;-0.566162;-0.378906;0.439941;-0.268977;-0.691517;0.218253;-0.633894
28725;9.690742;0.682582;-0.536251;-0.002167;0.009547;-0.013083;-0.575928;-0.388916;0.429688;-0.268890;-0.691593;0.218156;-0.633881
28726;9.799666;0.844384;-0.530783;0.019258;0.001856;-0.016992;-0.582764;-0.382324;0.438721;-0.268927;-0.691570;0.218036;-0.633932
28727;9.833026;0.993854;-0.544787;0.016009;0.009582;-0.014727;-0.571777;-0.383789;0.441650;-0.268680;-0.691564;0.217820;-0.634117
28728;9.767322;0.974760;-0.583371;-0.008007;0.020567;-0.012001;-0.581055;-0.383545;0.437256;-0.268647;-0.691544;0.217712;-0.634190
28729;9.627996;0.792520;-0.538906;-0.021072;0.017447;-0.014390;-0.586426;-0.385010;0.435547;-0.268693;-0.691406;0.217700;-0.634325
28730;9.637372;0.724888;-0.485372;-0.001265;-0.005386;-0.012711;-0.578857;-0.398438;0.440186;-0.268580;-0.691380;0.217656;-0.634417
28731;9.815096;0.831310;-0.527454;0.037592;-0.010871;-0.014885;-0.578857;-0.392090;0.435303;-0.268394;-0.691575;0.217338;-0.634391
28732;9.914522;0.970024;-0.527993;0.043086;0.012331;-0.017535;-0.577881;-0.397461;0.432617;-0.268243;-0.691602;0.216996;-0.634543
28733;9.803460;0.986268;-0.512040;0.023899;0.025104;-0.020994;-0.576416;-0.388428;0.439697;-0.268362;-0.691500;0.216724;-0.634697
28734;9.674780;0.924568;-0.531246;0.006740;0.015289;-0.022066;-0.579346;-0.387207;0.439209;-0.268353;-0.691505;0.216505;-0.634770
28735;9.678295;0.857518;-0.508720;-0.000483;0.012523;-0.018160;-0.575928;-0.390869;0.427734;-0.268331;-0.691479;0.216357;-0.634859
28736;9.724670;0.861193;-0.554368;0.006539;0.022288;-0.019482;-0.583252;-0.388428;0.435791;-0.268550;-0.691309;0.216264;-0.634983
28737;9.762255;0.909256;-0.571537;0.016743;0.024790;-0.021638;-0.572266;-0.380615;0.431396;-0.268499;-0.691206;0.216001;-0.635205
28738;9.749316;0.959213;-0.593187;0.016181;0.019786;-0.016203;-0.577637;-0.389160;0.433350;-0.268485;-0.691133;0.215873;-0.635334
28739;9.722890;0.927306;-0.599605;-0.005594;0.001152;-0.013706;-0.581055;-0.385986;0.435791;-0.268570;-0.691103;0.215857;-0.635337
28740;9.757914;0.842893;-0.558398;-0.016135;-0.007565;-0.015007;-0.583740;-0.389893;0.429688;-0.268602;-0.691105;0.215884;-0.635311
28741;9.775762;0.747658;-0.521057;-0.009379;-0.004625;-0.016552;-0.572266;-0.385742;0.437012;-0.268729;-0.691028;0.215913;-0.635332
28742;9.812001;0.766289;-0.442557;0.026332;-0.008860;-0.017576;-0.575928;-0.383301;0.434082;-0.268565;-0.691203;0.215705;-0.635281
28743;9.847329;0.887737;-0.504652;0.036580;0.007640;-0.021569;-0.580566;-0.393311;0.440186;-0.268392;-0.691261;0.215421;-0.635388
28744;9.748829;0.934245;-0.526426;0.019183;0.011035;-0.024981;-0.569336;-0.394531;0.435547;-0.268320;-0.691313;0.215095;-0.635472
28745;9.703154;0.821858;-0.549418;0.020352;-0.005426;-0.024187;-0.581055;-0.387695;0.438477;-0.268379;-0.691464;0.214870;-0.635358
28746;9.791381;0.851217;-0.580483;0.030933;-0.005989;-0.010183;-0.572510;-0.390137;0.437256;-0.268098;-0.691577;0.214649;-0.635430
28747;9.799823;0.959549;-0.532282;0.032911;-0.007880;-0.013104;-0.574219;-0.391602;0.433350;-0.267931;-0.691741;0.214423;-0.635398
28748;9.788671;1.002887;-0.486080;0.018422;-0.006885;-0.019503;-0.583984;-0.384521;0.429443;-0.267952;-0.691824;0.214272;-0.635350
28749;9.767410;0.921303;-0.481922;0.016808;-0.004385;-0.026793;-0.579834;-0.389893;0.439209;-0.267948;-0.691799;0.214138;-0.635424
28750;9.774205;0.878098;-0.489109;0.010699;0.005415;-0.027634;-0.578369;-0.379639;0.436768;-0.267928;-0.691843;0.213888;-0.635468
28751;9.753560;0.909880;-0.538196;0.013070;0.009441;-0.033160;-0.575684;-0.392090;0.428955;-0.267887;-0.691854;0.213659;-0.635551
28752;9.726054;0.912642;-0.518811;0.013446;0.006844;-0.030930;-0.572754;-0.387451;0.430908;-0.268086;-0.691813;0.213487;-0.635569
28753;9.733315;0.920963;-0.506567;0.014359;0.000576;-0.024661;-0.579834;-0.385010;0.442383;-0.268178;-0.691831;0.213361;-0.635553
28754;9.768178;0.914949;-0.526287;0.020789;-0.000105;-0.023521;-0.572266;-0.388916;0.439697;-0.267966;-0.691950;0.213076;-0.635608
28755;9.738892;0.973377;-0.562596;0.024311;-0.001139;-0.020891;-0.571045;-0.386963;0.430908;-0.267858;-0.692088;0.212822;-0.635589
28756;9.759161;1.061450;-0.568468;0.012221;0.000495;-0.015752;-0.578369;-0.385254;0.437988;-0.267930;-0.692087;0.212770;-0.635577
28757;9.732253;1.045951;-0.563448;-0.017195;-0.003201;-0.019909;-0.580322;-0.393799;0.435547;-0.268002;-0.692086;0.212768;-0.635548
28758;9.763749;0.905144;-0.500454;-0.028545;-0.011929;-0.022558;-0.573730;-0.387451;0.430908;-0.268235;-0.692082;0.212818;-0.635437
28759;9.851840;0.756436;-0.507606;-0.013378;-0.003326;-0.021437;-0.580078;-0.389404;0.439453;-0.268451;-0.692043;0.212868;-0.635372
28760;9.802021;0.848998;-0.487014;0.016173;0.005250;-0.026418;-0.572754;-0.395508;0.430420;-0.268369;-0.692094;0.212597;-0.635442
28761;9.731727;0.968610;-0.516720;0.028111;-0.001079;-0.027054;-0.575928;-0.385986;0.425049;-0.268458;-0.692152;0.212365;-0.635419
28762;9.716229;1.015869;-0.522413;0.008902;-0.005453;-0.020920;-0.573730;-0.388916;0.436035;-0.268587;-0.692099;0.212367;-0.635422
28763;9.730239;0.940465;-0.523205;-0.007338;0.006946;-0.022712;-0.566162;-0.389160;0.433838;-0.268716;-0.692075;0.212290;-0.635418
28764;9.759625;0.873018;-0.499463;-0.003887;0.003639;-0.020158;-0.577881;-0.399414;0.434570;-0.268897;-0.692087;0.212259;-0.635340
28765;9.788354;0.933730;-0.518979;0.016775;0.001137;-0.023773;-0.575439;-0.396973;0.431396;-0.268966;-0.692120;0.212038;-0.635349
28766;9.818961;1.049185;-0.540315;0.015708;0.002540;-0.020902;-0.580078;-0.391846;0.441650;-0.269065;-0.692116;0.211878;-0.635364
28767;9.761105;1.086077;-0.549608;-0.010426;0.010539;-0.026190;-0.570557;-0.387695;0.434326;-0.269129;-0.692099;0.211714;-0.635410
28768;9.656724;0.907507;-0.492317;-0.028257;0.000022;-0.025410;-0.578857;-0.394531;0.435547;-0.269405;-0.692067;0.211777;-0.635306
28769;9.668466;0.793462;-0.479189;-0.015201;-0.010894;-0.016493;-0.577393;-0.389160;0.435791;-0.269511;-0.692086;0.211790;-0.635237
28770;9.794254;0.955402;-0.507637;0.013917;-0.016239;-0.012625;-0.583008;-0.391113;0.434570;-0.269376;-0.692198;0.211702;-0.635202
28771;9.854224;1.110559;-0.563481;0.006620;-0.001718;-0.012354;-0.570312;-0.393066;0.437012;-0.269301;-0.692177;0.211613;-0.635286
28772;9.806246;1.092966;-0.506871;-0.019467;0.011433;-0.020714;-0.573242;-0.394531;0.437256;-0.269527;-0.692125;0.211590;-0.635254
28773;9.672904;0.865605;-0.522913;-0.027355;0.002266;-0.023961;-0.574951;-0.394043;0.431885;-0.269780;-0.692101;0.211594;-0.635171
28774;9.680075;0.725294;-0.461789;-0.001641;-0.011174;-0.014674;-0.577148;-0.390869;0.423340;-0.269860;-0.692132;0.211592;-0.635105
28775;9.765138;0.880112;-0.515826;0.032589;-0.011184;-0.015003;-0.570312;-0.393311;0.437256;-0.269814;-0.692145;0.211495;-0.635142
28776;9.860114;1.128925;-0.553524;0.032186;-0.003115;-0.014260;-0.572754;-0.391357;0.435059;-0.269672;-0.692276;0.211270;-0.635135
28777;9.807485;1.129735;-0.537267;0.000515;0.007755;-0.019240;-0.575439;-0.391602;0.438477;-0.269753;-0.692252;0.211177;-0.635157
28778;9.643704;0.944646;-0.476278;-0.015120;-0.003149;-0.028744;-0.576416;-0.390869;0.437500;-0.269890;-0.692289;0.211096;-0.635085
28779;9.623975;0.847346;-0.484787;-0.005506;-0.010745;-0.022384;-0.573975;-0.392334;0.442383;-0.269920;-0.692363;0.211026;-0.635016
28780;9.730541;0.943618;-0.514911;0.012176;-0.013127;-0.007816;-0.575684;-0.389404;0.431641;-0.269732;-0.692518;0.210910;-0.634965
28781;9.822576;1.014363;-0.581803;0.011867;-0.008409;-0.005337;-0.572266;-0.389648;0.437988;-0.269652;-0.692530;0.210911;-0.634985
28782;9.843448;1.024819;-0.526979;0.000547;-0.003494;-0.015884;-0.579102;-0.385742;0.435303;-0.269646;-0.692583;0.210846;-0.634952
28783;9.763225;0.988114;-0.498435;-0.006389;0.000372;-0.022454;-0.576904;-0.394531;0.431396;-0.269677;-0.692554;0.210793;-0.634988
28784;9.705923;0.956832;-0.541289;-0.008486;-0.010662;-0.019480;-0.575684;-0.401123;0.440430;-0.269818;-0.692554;0.210805;-0.634924
28785;9.765662;0.913915;-0.566134;0.000735;-0.010187;-0.012393;-0.572510;-0.390625;0.426758;-0.269802;-0.692654;0.210696;-0.634858
28786;9.841113;0.965213;-0.542019;-0.001889;-0.001449;-0.010629;-0.575684;-0.390869;0.439209;-0.269940;-0.692574;0.210781;-0.634859
28787;9.889056;0.978784;-0.504450;0.004428;0.001411;-0.015868;-0.572754;-0.396240;0.429932;-0.269881;-0.692607;0.210659;-0.634888
28788;9.826586;0.937275;-0.485255;0.010202;0.002315;-0.023463;-0.567871;-0.393066;0.431885;-0.270015;-0.692591;0.210541;-0.634888
28789;9.686968;0.930373;-0.445830;0.020902;0.006865;-0.023249;-0.573730;-0.391846;0.431885;-0.270080;-0.692609;0.210366;-0.634898
28790;9.589021;0.943246;-0.494750;0.029182;-0.000210;-0.025160;-0.574951;-0.388184;0.437012;-0.270036;-0.692664;0.210134;-0.634934
28791;9.664239;0.989554;-0.577550;0.026315;-0.011674;-0.024941;-0.568115;-0.384521;0.437012;-0.269885;-0.692810;0.209903;-0.634914
28792;9.808607;1.056395;-0.567494;0.013973;-0.008432;-0.024845;-0.576660;-0.398682;0.434326;-0.269837;-0.692933;0.209764;-0.634847
28793;9.860645;1.018098;-0.497192;0.013014;-0.002324;-0.026471;-0.574219;-0.392090;0.437988;-0.269897;-0.692972;0.209568;-0.634844
28794;9.740361;1.009959;-0.488603;0.017740;0.002558;-0.025103;-0.572510;-0.390137;0.430420;-0.269849;-0.693032;0.209335;-0.634876
28795;9.701582;1.044666;-0.529128;0.016474;-0.000142;-0.020970;-0.565430;-0.398438;0.431885;-0.269878;-0.693032;0.209225;-0.634900
28796;9.730023;1.053500;-0.568061;0.005942;-0.000308;-0.016422;-0.576416;-0.396484;0.426025;-0.270046;-0.693043;0.209187;-0.634828
28797;9.776837;0.961181;-0.547882;0.004681;-0.003010;-0.012292;-0.572510;-0.390137;0.428955;-0.270158;-0.692969;0.209200;-0.634858
28798;9.785299;0.986261;-0.543927;0.007912;-0.002036;-0.008679;-0.570312;-0.395508;0.428467;-0.270170;-0.692930;0.209210;-0.634892
28799;9.770557;1.050647;-0.556473;0.007024;0.000877;-0.013185;-0.579590;-0.392334;0.439209;-0.270290;-0.692886;0.209201;-0.634892
28800;9.700290;1.055753;-0.530813;-0.003081;-0.004771;-0.018535;-0.565674;-0.386230;0.432129;-0.270252;-0.692918;0.209096;-0.634907
28801;9.748101;0.983525;-0.518768;-0.017651;-0.011517;-0.017277;-0.573486;-0.399414;0.441895;-0.270417;-0.692940;0.209211;-0.634775
28802;9.786623;0.903792;-0.498369;-0.003593;-0.006882;-0.016264;-0.571045;-0.396484;0.434570;-0.270451;-0.693021;0.209127;-0.634700
28803;9.851140;0.972961;-0.545548;0.019067;0.004962;-0.004715;-0.570557;-0.393066;0.440918;-0.270385;-0.693016;0.209035;-0.634764
28804;9.772238;1.119952;-0.580964;0.021513;0.008092;-0.013035;-0.567871;-0.385010;0.437256;-0.270257;-0.693069;0.208827;-0.634829
28805;9.668892;1.085370;-0.574064;-0.007419;-0.001317;-0.011793;-0.568115;-0.389893;0.430664;-0.270265;-0.693083;0.208848;-0.634803
28806;9.682323;1.005031;-0.554948;-0.023481;-0.009250;-0.006815;-0.567383;-0.396729;0.436768;-0.270445;-0.693037;0.209054;-0.634709
28807;9.730004;0.982528;-0.523682;-0.020297;-0.002649;-0.004882;-0.568359;-0.390625;0.431641;-0.270601;-0.693015;0.209183;-0.634624
28808;9.773131;1.013786;-0.525779;-0.007458;-0.001013;-0.005767;-0.570068;-0.392090;0.432373;-0.270680;-0.692970;0.209276;-0.634609
28809;9.845383;0.999943;-0.585637;-0.007619;-0.005410;-0.010518;-0.574707;-0.390625;0.437256;-0.270767;-0.692958;0.209337;-0.634565
28810;9.774461;1.020363;-0.547085;-0.006809;-0.002543;-0.012310;-0.576904;-0.390625;0.439697;-0.270755;-0.692962;0.209316;-0.634573
28811;9.704007;0.989213;-0.527378;-0.011125;-0.007293;-0.009981;-0.571289;-0.395996;0.432129;-0.270704;-0.692989;0.209313;-0.634566
28812;9.744035;0.962956;-0.508719;0.000773;-0.010343;-0.007740;-0.573730;-0.395996;0.437988;-0.270748;-0.693011;0.209356;-0.634509
28813;9.822694;1.020349;-0.525687;0.009168;-0.001907;-0.003635;-0.570068;-0.393799;0.431641;-0.270649;-0.693039;0.209297;-0.634540
28814;9.772500;1.093385;-0.518355;0.013576;0.004824;-0.011919;-0.575928;-0.394531;0.436768;-0.270663;-0.693016;0.209225;-0.634583
28815;9.708232;1.091322;-0.566168;-0.001778;0.000362;-0.011944;-0.577148;-0.392334;0.438721;-0.270661;-0.693005;0.209174;-0.634613
28816;9.656294;1.039209;-0.568172;-0.015310;0.003140;-0.007659;-0.576904;-0.395264;0.428711;-0.270667;-0.692954;0.209192;-0.634660
28817;9.698091;1.016684;-0.568328;-0.013865;-0.003422;-0.014381;-0.570068;-0.395996;0.433105;-0.270832;-0.692873;0.209270;-0.634652
28818;9.789664;1.009182;-0.552477;-0.007336;-0.009829;-0.006958;-0.571045;-0.395264;0.436035;-0.270912;-0.692887;0.209354;-0.634574
28819;9.823524;1.069109;-0.541222;-0.011615;-0.004243;-0.010788;-0.569824;-0.384521;0.430420;-0.270998;-0.692889;0.209395;-0.634522
28820;9.755383;0.989766;-0.560080;-0.021989;-0.000176;-0.012124;-0.563721;-0.402344;0.435547;-0.271134;-0.692809;0.209530;-0.634508
28821;9.701574;0.898982;-0.547729;-0.010466;-0.000782;-0.007488;-0.570557;-0.400146;0.431885;-0.271323;-0.692808;0.209610;-0.634401
28822;9.780366;0.991973;-0.558564;0.004318;-0.008611;-0.003661;-0.571045;-0.398682;0.432617;-0.271358;-0.692826;0.209656;-0.634351
28823;9.809493;1.105568;-0.580673;-0.006150;0.001241;-0.011285;-0.571777;-0.391357;0.434570;-0.271485;-0.692786;0.209682;-0.634332
28824;9.773012;1.097735;-0.552211;-0.023514;0.014607;-0.016229;-0.563965;-0.397217;0.436035;-0.271663;-0.692661;0.209716;-0.634381
28825;9.771363;0.974999;-0.559498;-0.028249;0.012450;-0.016112;-0.570312;-0.395020;0.443359;-0.271962;-0.692571;0.209803;-0.634323
28826;9.836968;0.985227;-0.529452;-0.015773;0.011076;-0.017545;-0.574463;-0.404053;0.427979;-0.272043;-0.692558;0.209732;-0.634325
28827;9.948434;1.199778;-0.594985;-0.025025;0.063586;-0.020624;-0.571777;-0.394287;0.428955;-0.272485;-0.692124;0.209678;-0.634627
28828;9.818204;1.444118;-0.485626;-0.108075;0.137882;-0.023873;-0.566406;-0.399658;0.431152;-0.273468;-0.691138;0.209870;-0.635215
28829;9.652839;1.116642;-0.280076;-0.163800;0.099247;-0.032672;-0.571045;-0.402588;0.431885;-0.274799;-0.690292;0.210389;-0.635389
28830;9.673306;0.654669;-0.299699;-0.099074;0.059783;-0.025215;-0.579102;-0.402100;0.426025;-0.275601;-0.689797;0.210660;-0.635489
28831;9.698373;0.676957;-0.473811;-0.026902;0.058657;-0.009366;-0.573486;-0.403076;0.429443;-0.275870;-0.689391;0.210641;-0.635819
28832;9.771712;0.815542;-0.593710;0.040797;0.046190;-0.011318;-0.570801;-0.402344;0.426758;-0.275754;-0.689256;0.210279;-0.636136
28833;9.754368;1.007454;-0.642123;0.060805;0.027266;-0.005309;-0.581299;-0.397705;0.426025;-0.275500;-0.689247;0.209921;-0.636374
28834;9.601029;1.112227;-0.617694;0.045088;-0.019376;0.003273;-0.574951;-0.401367;0.430908;-0.275097;-0.689402;0.209763;-0.636433
28835;9.611918;0.996832;-0.484589;0.031930;-0.058279;0.003748;-0.570557;-0.399902;0.429688;-0.274744;-0.689780;0.209764;-0.636175
28836;9.682856;1.003630;-0.432376;0.036241;-0.038024;0.007555;-0.574463;-0.396973;0.422607;-0.274423;-0.690050;0.209748;-0.636026
28837;9.710195;1.182379;-0.425135;0.031351;-0.005350;0.004249;-0.579834;-0.393066;0.436523;-0.274221;-0.690076;0.209704;-0.636100
28838;9.694204;1.190671;-0.436199;-0.001100;0.004179;-0.010902;-0.579834;-0.398682;0.433350;-0.274107;-0.690087;0.209602;-0.636169
28839;9.776161;0.999160;-0.438613;-0.012972;0.009496;-0.013070;-0.578369;-0.393555;0.433594;-0.274157;-0.690025;0.209559;-0.636229
28840;9.787201;0.976767;-0.470846;-0.006862;0.018772;-0.012501;-0.573486;-0.402588;0.432617;-0.274153;-0.689933;0.209474;-0.636359
28841;9.775861;1.012479;-0.526940;-0.000167;0.011443;-0.007909;-0.580566;-0.400391;0.429688;-0.274181;-0.689898;0.209408;-0.636407
28842;9.758142;1.052953;-0.509844;0.006734;0.008047;0.000043;-0.578369;-0.401123;0.427002;-0.274082;-0.689843;0.209360;-0.636525
28843;9.734715;1.021671;-0.537243;-0.005523;0.005322;-0.004240;-0.581299;-0.407715;0.431641;-0.274120;-0.689769;0.209387;-0.636580
28844;9.655897;0.930870;-0.528334;-0.007414;-0.009028;-0.014829;-0.570801;-0.401367;0.427979;-0.274168;-0.689818;0.209329;-0.636525
28845;9.695877;0.904708;-0.510808;0.009282;-0.023165;-0.003437;-0.562012;-0.398926;0.435059;-0.274109;-0.689956;0.209365;-0.636389
28846;9.794056;1.022006;-0.455105;0.023831;-0.026728;0.001472;-0.575684;-0.390381;0.434326;-0.273918;-0.690207;0.209341;-0.636207
28847;9.881863;1.157200;-0.470724;0.023134;-0.014681;-0.002703;-0.569580;-0.402344;0.433350;-0.273639;-0.690349;0.209257;-0.636201
28848;9.845240;1.147680;-0.445706;0.002413;-0.001841;-0.009843;-0.574951;-0.399170;0.431641;-0.273660;-0.690403;0.209204;-0.636150
28849;9.749520;0.975347;-0.451232;-0.007692;0.005587;-0.019851;-0.577393;-0.401611;0.425537;-0.273768;-0.690384;0.209137;-0.636147
28850;9.629411;0.859263;-0.460600;0.010393;-0.004094;-0.024511;-0.572021;-0.397217;0.429932;-0.273830;-0.690418;0.209002;-0.636127
28851;9.684159;0.923024;-0.499638;0.033948;-0.008336;-0.014404;-0.574219;-0.396484;0.419189;-0.273670;-0.690551;0.208810;-0.636115
28852;9.801464;1.086197;-0.559342;0.043962;-0.007499;-0.015183;-0.573975;-0.393555;0.427002;-0.273546;-0.690620;0.208645;-0.636148
28853;9.789880;1.184403;-0.513636;0.021133;0.007804;-0.022635;-0.566650;-0.392822;0.435791;-0.273530;-0.690621;0.208465;-0.636212
28854;9.742061;1.025563;-0.480776;0.006750;0.002531;-0.028762;-0.571045;-0.398682;0.425293;-0.273586;-0.690706;0.208294;-0.636152
28855;9.706273;0.932421;-0.478874;0.015400;-0.001176;-0.024108;-0.573486;-0.394531;0.431152;-0.273660;-0.690742;0.208168;-0.636122
28856;9.724368;1.021611;-0.485385;0.034641;-0.007544;-0.020830;-0.566895;-0.397705;0.428955;-0.273496;-0.690882;0.207927;-0.636120
28857;9.780553;1.159396;-0.533877;0.026623;-0.007680;-0.016859;-0.567139;-0.398193;0.429932;-0.273448;-0.690997;0.207788;-0.636061
28858;9.836058;1.206765;-0.585883;-0.003455;-0.002309;-0.016099;-0.572510;-0.403809;0.429688;-0.273571;-0.691018;0.207792;-0.635984
28859;9.784939;1.075659;-0.506083;-0.032249;0.008060;-0.019372;-0.572510;-0.406006;0.429688;-0.273890;-0.690912;0.207877;-0.635934
28860;9.724728;0.867554;-0.428755;-0.023187;0.004260;-0.032258;-0.577148;-0.400146;0.435303;-0.274226;-0.690872;0.207843;-0.635843
28861;9.688853;0.846091;-0.415319;0.011278;-0.007125;-0.030600;-0.580078;-0.401855;0.436768;-0.274213;-0.690993;0.207616;-0.635793
28862;9.739671;1.039412;-0.497383;0.029805;-0.009059;-0.023927;-0.572998;-0.396484;0.426514;-0.274028;-0.691156;0.207309;-0.635795
28863;9.837372;1.225404;-0.532798;0.013765;0.013639;-0.028162;-0.578369;-0.399902;0.437012;-0.274111;-0.691114;0.207128;-0.635864
28864;9.828810;1.171370;-0.540252;-0.025405;0.020087;-0.031197;-0.572754;-0.393799;0.434326;-0.274332;-0.691013;0.207013;-0.635916
28865;9.766966;0.996335;-0.435585;-0.037406;0.005600;-0.033546;-0.580566;-0.403320;0.429932;-0.274640;-0.690957;0.207039;-0.635835
28866;9.710965;0.920943;-0.390128;-0.013828;-0.006304;-0.026454;-0.571777;-0.402832;0.426025;-0.274774;-0.690969;0.206983;-0.635782
28867;9.748455;0.974359;-0.432468;0.015168;-0.007507;-0.022894;-0.574707;-0.405029;0.425293;-0.274814;-0.691042;0.206860;-0.635726
28868;9.729411;1.062849;-0.505154;0.024203;0.004199;-0.029733;-0.566895;-0.400635;0.427490;-0.274852;-0.691074;0.206612;-0.635755
28869;9.660318;1.107471;-0.493559;0.017346;0.007219;-0.028469;-0.567139;-0.404053;0.430176;-0.274946;-0.691099;0.206427;-0.635747
28870;9.700630;1.049413;-0.478847;0.011019;-0.000558;-0.029419;-0.571045;-0.402588;0.436768;-0.275056;-0.691172;0.206255;-0.635676
28871;9.716446;1.010886;-0.474063;0.016582;0.001614;-0.028155;-0.568604;-0.396484;0.428711;-0.275039;-0.691275;0.205998;-0.635655
28872;9.766658;1.104495;-0.466297;0.026135;-0.007261;-0.019094;-0.570801;-0.402344;0.425293;-0.274963;-0.691379;0.205854;-0.635621
28873;9.838694;1.253981;-0.511335;0.013944;-0.007663;-0.012697;-0.579590;-0.401855;0.419434;-0.274962;-0.691423;0.205811;-0.635587
28874;9.834807;1.249565;-0.471129;-0.017514;0.000675;-0.014109;-0.566162;-0.402588;0.433838;-0.275146;-0.691298;0.205920;-0.635609
28875;9.818830;1.043919;-0.494991;-0.036715;0.004069;-0.014253;-0.573486;-0.408691;0.432617;-0.275427;-0.691231;0.206063;-0.635514
28876;9.780127;0.797419;-0.453904;-0.003581;0.003326;-0.017724;-0.574951;-0.410156;0.429688;-0.275515;-0.691233;0.205975;-0.635502
28877;9.746466;0.776467;-0.460665;0.049391;0.000534;-0.015501;-0.571045;-0.398438;0.423828;-0.275296;-0.691348;0.205636;-0.635582
28878;9.751587;0.968977;-0.512856;0.089674;0.020048;-0.018084;-0.571289;-0.403809;0.430420;-0.274920;-0.691417;0.205121;-0.635836
28879;9.640573;1.269895;-0.491935;0.068173;0.042020;-0.015717;-0.570312;-0.397705;0.438232;-0.274668;-0.691358;0.204619;-0.636170
28880;9.607302;1.239402;-0.401643;0.035179;0.016900;-0.012153;-0.570068;-0.393799;0.426514;-0.274467;-0.691396;0.204337;-0.636307
28881;9.729509;1.098258;-0.443515;0.024317;0.011013;-0.014270;-0.568848;-0.408691;0.425293;-0.274410;-0.691370;0.204210;-0.636400
28882;9.721920;1.095858;-0.453912;0.024465;0.012678;-0.010999;-0.573730;-0.401855;0.433350;-0.274423;-0.691336;0.204068;-0.636477
28883;9.706243;1.069387;-0.468907;0.025833;0.009613;-0.008832;-0.569824;-0.399658;0.429932;-0.274281;-0.691352;0.203881;-0.636580
28884;9.740322;1.112722;-0.469104;0.021695;0.001763;0.001192;-0.572754;-0.402344;0.425537;-0.274144;-0.691369;0.203837;-0.636635
28885;9.725386;1.104210;-0.493812;0.009325;-0.010186;-0.003366;-0.568604;-0.395508;0.427979;-0.274108;-0.691399;0.203872;-0.636607
28886;9.747957;1.082441;-0.465744;0.002990;-0.012812;-0.007379;-0.573975;-0.407959;0.426758;-0.274106;-0.691452;0.203940;-0.636528
28887;9.712552;1.056438;-0.454107;0.008658;-0.011239;-0.002914;-0.581055;-0.391846;0.432617;-0.274078;-0.691492;0.203959;-0.636490
28888;9.754466;1.067918;-0.450510;0.012850;-0.010861;0.005244;-0.567139;-0.392334;0.428711;-0.273808;-0.691538;0.203967;-0.636554
28889;9.774794;1.085557;-0.489063;0.012696;-0.000059;0.000506;-0.574463;-0.401611;0.433105;-0.273725;-0.691536;0.204009;-0.636579
28890;9.748821;1.066488;-0.483643;0.009654;0.005316;-0.004298;-0.575195;-0.393311;0.425049;-0.273652;-0.691523;0.203949;-0.636643
28891;9.815778;1.024073;-0.473389;0.022419;0.004802;-0.005185;-0.574951;-0.395020;0.426270;-0.273525;-0.691492;0.203887;-0.636752
28892;9.772162;1.064886;-0.459888;0.031105;0.008312;-0.009501;-0.576416;-0.404053;0.431641;-0.273378;-0.691479;0.203734;-0.636879
28893;9.742237;1.049153;-0.507041;0.030506;0.001788;-0.011965;-0.572754;-0.406494;0.432129;-0.273234;-0.691535;0.203527;-0.636945
28894;9.664462;1.047241;-0.493689;0.036058;0.001547;-0.006163;-0.569580;-0.393311;0.431641;-0.273064;-0.691605;0.203334;-0.637004
28895;9.688088;1.099299;-0.473156;0.038754;0.005612;-0.003367;-0.567871;-0.400635;0.426025;-0.272836;-0.691650;0.203173;-0.637104
28896;9.804806;1.190365;-0.542482;0.033865;0.014511;-0.002038;-0.568359;-0.394531;0.436279;-0.272740;-0.691607;0.203064;-0.637227
28897;9.820871;1.183316;-0.529809;0.016107;0.014487;-0.006080;-0.563232;-0.408447;0.429199;-0.272659;-0.691586;0.202961;-0.637317
28898;9.732552;1.135414;-0.491080;0.000095;0.006680;-0.010398;-0.572998;-0.398682;0.429932;-0.272847;-0.691551;0.202990;-0.637265
28899;9.718606;1.049482;-0.431090;-0.003199;0.006122;-0.012610;-0.576172;-0.398682;0.429688;-0.272928;-0.691501;0.202987;-0.637285
28900;9.710801;0.992570;-0.439809;0.005930;0.007042;-0.014706;-0.578369;-0.397461;0.428223;-0.272944;-0.691465;0.202907;-0.637343
28901;9.748328;1.043906;-0.480279;0.021381;0.010606;-0.012783;-0.573486;-0.394287;0.434814;-0.272852;-0.691431;0.202747;-0.637470
28902;9.852440;1.087314;-0.505676;0.028890;0.006238;-0.009911;-0.568359;-0.402100;0.434326;-0.272673;-0.691475;0.202560;-0.637559
28903;9.874063;1.137343;-0.464186;0.024597;0.006608;-0.010686;-0.571533;-0.392822;0.433594;-0.272612;-0.691515;0.202411;-0.637589
28904;9.742693;1.149113;-0.420916;0.011835;0.009534;-0.014355;-0.569092;-0.397949;0.439697;-0.272581;-0.691504;0.202302;-0.637648
28905;9.633853;1.092256;-0.438212;0.002331;0.010739;-0.015872;-0.575684;-0.393311;0.436279;-0.272621;-0.691506;0.202201;-0.637661
28906;9.597779;1.048987;-0.415319;0.003768;0.009648;-0.019621;-0.571777;-0.393066;0.435059;-0.272619;-0.691493;0.202070;-0.637718
28907;9.703484;1.041853;-0.458844;0.016420;0.004910;-0.014611;-0.576660;-0.400146;0.433350;-0.272546;-0.691525;0.201936;-0.637757
28908;9.814355;1.125416;-0.467689;0.022303;0.002704;-0.009788;-0.569092;-0.402100;0.438721;-0.272418;-0.691560;0.201783;-0.637822
28909;9.849420;1.209021;-0.482381;0.006781;0.016754;-0.016300;-0.576904;-0.394775;0.431396;-0.272467;-0.691538;0.201636;-0.637871
28910;9.695678;1.153689;-0.470936;-0.011068;0.014875;-0.019036;-0.571289;-0.394287;0.431396;-0.272590;-0.691435;0.201603;-0.637941
28911;9.666304;0.985953;-0.424460;-0.008440;-0.000361;-0.014927;-0.575439;-0.393799;0.427246;-0.272689;-0.691421;0.201638;-0.637903
28912;9.669164;0.974936;-0.457786;0.005570;-0.000702;-0.010754;-0.567139;-0.397705;0.427246;-0.272678;-0.691405;0.201635;-0.637926
28913;9.764001;1.120191;-0.480165;0.020168;0.000473;-0.005639;-0.572998;-0.393066;0.426758;-0.272637;-0.691423;0.201608;-0.637932
28914;9.794781;1.176810;-0.447848;0.015026;0.003440;-0.001729;-0.572266;-0.395264;0.428711;-0.272547;-0.691393;0.201609;-0.638003
28915;9.734937;1.169746;-0.443747;-0.012086;-0.001060;-0.005647;-0.575439;-0.404541;0.435791;-0.272631;-0.691344;0.201729;-0.637982
28916;9.658281;1.042262;-0.439212;-0.022047;-0.009602;-0.012473;-0.580322;-0.399414;0.432617;-0.272767;-0.691367;0.201810;-0.637873
28917;9.682642;0.915627;-0.426474;-0.012210;-0.012776;-0.011929;-0.570312;-0.406494;0.426514;-0.272795;-0.691402;0.201854;-0.637809
28918;9.808124;0.898654;-0.409171;0.013201;-0.008252;-0.010725;-0.570312;-0.401855;0.426758;-0.272824;-0.691455;0.201833;-0.637746
28919;9.868256;0.927681;-0.422053;0.039003;-0.003740;-0.016423;-0.571533;-0.401367;0.426270;-0.272720;-0.691551;0.201639;-0.637749
28920;9.922181;0.936738;-0.459008;0.062898;0.004457;-0.020578;-0.575439;-0.404297;0.436523;-0.272506;-0.691658;0.201275;-0.637839
28921;9.839926;0.965742;-0.399375;0.077628;0.009441;-0.022695;-0.564941;-0.397949;0.436279;-0.272151;-0.691821;0.200728;-0.637985
28922;9.701523;0.946384;-0.468549;0.079449;-0.003807;-0.025812;-0.570801;-0.392334;0.430664;-0.271836;-0.692073;0.200243;-0.637999
28923;9.711620;0.886287;-0.490643;0.074761;-0.020762;-0.024231;-0.574463;-0.400391;0.436279;-0.271476;-0.692360;0.199845;-0.637966
28924;9.862949;0.781114;-0.476538;0.063532;-0.024265;-0.023969;-0.565674;-0.394287;0.437012;-0.271155;-0.692661;0.199461;-0.637895
28925;10.105664;0.649893;-0.437805;0.059823;-0.032105;-0.020811;-0.566895;-0.397949;0.440186;-0.270863;-0.693000;0.199180;-0.637739
28926;10.271966;0.554012;-0.401186;0.063500;-0.029271;-0.025420;-0.574951;-0.390869;0.430908;-0.270572;-0.693351;0.198823;-0.637593
28927;10.232813;0.397564;-0.337639;0.084757;-0.016335;-0.038106;-0.566162;-0.396484;0.431885;-0.270205;-0.693639;0.198274;-0.637606
28928;10.110655;0.191130;-0.380348;0.134793;0.002480;-0.062005;-0.574219;-0.397949;0.441650;-0.269799;-0.693994;0.197316;-0.637689
28929;10.019548;0.044683;-0.387333;0.198017;0.024713;-0.085647;-0.570557;-0.394531;0.437988;-0.269084;-0.694441;0.195746;-0.637988
28930;9.914744;-0.015006;-0.432780;0.277842;0.039917;-0.107845;-0.573730;-0.387939;0.440430;-0.268086;-0.695000;0.193635;-0.638443
28931;9.853504;-0.077321;-0.482720;0.358551;0.051285;-0.118822;-0.560791;-0.388916;0.441406;-0.266636;-0.695690;0.190989;-0.639096
28932;9.687751;-0.073854;-0.511483;0.445780;0.045885;-0.112380;-0.562744;-0.399414;0.444092;-0.264749;-0.696596;0.187995;-0.639780
28933;9.384640;0.012712;-0.639610;0.543328;0.019071;-0.120930;-0.573242;-0.381836;0.452637;-0.262340;-0.697863;0.184475;-0.640417
28934;9.124336;0.203247;-0.811378;0.620470;-0.015823;-0.126109;-0.563232;-0.383301;0.451172;-0.259262;-0.699480;0.180510;-0.641036
28935;9.057054;0.354387;-1.059577;0.658402;-0.018306;-0.135014;-0.563477;-0.380371;0.457031;-0.256124;-0.701174;0.176369;-0.641599
28936;9.034629;0.239237;-1.252284;0.671135;0.028810;-0.135356;-0.566650;-0.378174;0.459473;-0.252963;-0.702627;0.172043;-0.642438
28937;8.839408;0.150318;-1.396192;0.728063;0.077507;-0.118833;-0.561035;-0.364258;0.457764;-0.249426;-0.703879;0.167391;-0.643678
28938;8.892753;0.200865;-1.595383;0.840957;0.108048;-0.059925;-0.566650;-0.360107;0.469238;-0.244962;-0.705074;0.162467;-0.645344
28939;9.288181;0.585173;-1.756216;0.983399;0.129730;0.029984;-0.569824;-0.368652;0.472412;-0.239127;-0.706305;0.157192;-0.647489
28940;9.859973;1.190605;-1.882726;1.052799;0.142570;0.136063;-0.564697;-0.347900;0.479980;-0.232400;-0.707403;0.152147;-0.649940
28941;10.632353;1.808344;-1.766288;0.984392;0.163653;0.227022;-0.566162;-0.346191;0.479248;-0.225577;-0.708110;0.147987;-0.652529
28942;11.325425;2.257214;-1.413286;0.797169;0.217868;0.299462;-0.572021;-0.329834;0.487549;-0.219601;-0.708019;0.145202;-0.655287
28943;11.286321;2.246591;-1.022095;0.578939;0.299477;0.342948;-0.572998;-0.322754;0.479492;-0.214682;-0.707018;0.143668;-0.658328
28944;10.501290;1.861732;-0.253374;0.369064;0.372016;0.340980;-0.583740;-0.319336;0.470703;-0.211150;-0.705197;0.143181;-0.661523
28945;9.650907;1.429059;0.545581;0.221940;0.447900;0.284304;-0.586914;-0.315186;0.469971;-0.208856;-0.702710;0.142990;-0.664930
28946;8.858961;1.194744;1.261775;0.146064;0.559897;0.160217;-0.590088;-0.313477;0.462646;-0.207842;-0.699613;0.142308;-0.668650
28947;8.492510;1.103195;1.713904;0.073061;0.678778;0.046374;-0.597656;-0.311279;0.470459;-0.208055;-0.695834;0.141175;-0.672754
28948;8.876136;0.821346;1.535933;-0.019466;0.709675;0.031191;-0.599365;-0.307861;0.461670;-0.208884;-0.691767;0.140405;-0.676840
28949;9.653960;0.454003;1.296682;-0.109756;0.680518;0.106992;-0.614502;-0.315918;0.448486;-0.209782;-0.687595;0.140650;-0.680751
28950;10.274722;-0.099572;1.183025;-0.182599;0.629509;0.189269;-0.622070;-0.310303;0.444092;-0.210531;-0.683426;0.141780;-0.684473
28951;10.780706;-0.507364;1.327739;-0.260337;0.569972;0.203545;-0.626221;-0.302979;0.438965;-0.211503;-0.679432;0.143506;-0.687782
28952;11.176436;-1.047054;1.353433;-0.306399;0.482206;0.167825;-0.623535;-0.308105;0.427490;-0.212783;-0.675895;0.145439;-0.690461
28953;11.271845;-1.246153;1.403700;-0.240456;0.404143;0.153440;-0.631104;-0.304443;0.426514;-0.213789;-0.672916;0.147125;-0.692699
28954;11.021246;-1.052787;1.458044;-0.150581;0.337735;0.179192;-0.632568;-0.301758;0.418945;-0.213989;-0.670451;0.148524;-0.694726
28955;10.491071;-1.013663;1.312962;-0.014482;0.332799;0.249973;-0.641846;-0.304199;0.416748;-0.213008;-0.668152;0.149536;-0.697022
28956;9.857998;-0.760311;1.181003;0.058748;0.363443;0.293011;-0.642822;-0.298096;0.402588;-0.211391;-0.665737;0.150277;-0.699660
28957;9.254453;-0.598651;1.117491;0.049089;0.383984;0.287635;-0.642578;-0.297363;0.406982;-0.209864;-0.663146;0.150963;-0.702428
28958;8.711039;-0.512568;1.168637;-0.042494;0.381883;0.257151;-0.652100;-0.282471;0.402100;-0.209119;-0.660468;0.152137;-0.704915
28959;8.336456;-0.517926;1.336068;-0.133471;0.339079;0.226764;-0.652100;-0.292480;0.397949;-0.208804;-0.657911;0.153637;-0.707072
28960;8.198486;-0.610979;1.508854;-0.180941;0.292192;0.208113;-0.660889;-0.290527;0.388672;-0.208957;-0.655560;0.155481;-0.708805
28961;8.225971;-0.829120;1.652479;-0.178927;0.243800;0.201393;-0.659180;-0.289307;0.388672;-0.208980;-0.653474;0.157250;-0.710332
28962;8.445033;-0.916998;1.736632;-0.113071;0.174757;0.192329;-0.663086;-0.289795;0.384521;-0.208671;-0.651936;0.158780;-0.711495
28963;8.727527;-1.070142;1.798100;0.027588;0.099258;0.170970;-0.656738;-0.285645;0.377686;-0.207615;-0.651105;0.159464;-0.712411
28964;8.964575;-1.038885;1.933080;0.195676;0.028687;0.129526;-0.662109;-0.285889;0.386475;-0.205862;-0.651020;0.159090;-0.713080
28965;9.117634;-0.931533;2.036514;0.345658;-0.042650;0.072359;-0.663086;-0.281250;0.394287;-0.203536;-0.651715;0.157659;-0.713431
28966;9.151870;-0.851080;2.124267;0.482784;-0.086073;0.004906;-0.665771;-0.279297;0.391846;-0.200796;-0.653004;0.155154;-0.713578
28967;9.189900;-0.694973;2.246190;0.531078;-0.123973;-0.057993;-0.658936;-0.278564;0.395752;-0.198068;-0.654642;0.151991;-0.713521
28968;9.123799;-0.413827;2.138247;0.492222;-0.126369;-0.081465;-0.648682;-0.272217;0.404541;-0.195782;-0.656251;0.149014;-0.713301
28969;8.903058;-0.106861;1.946042;0.400729;-0.099027;-0.093444;-0.658447;-0.270020;0.396484;-0.194195;-0.657584;0.146635;-0.713000
28970;8.648657;0.023847;1.788836;0.280816;-0.085833;-0.092775;-0.656006;-0.270264;0.408691;-0.193069;-0.658589;0.144668;-0.712781
28971;8.471059;-0.052944;1.609777;0.166028;-0.105585;-0.101995;-0.655762;-0.273438;0.412842;-0.192693;-0.659570;0.143515;-0.712208
28972;8.488777;-0.152628;1.411117;0.056070;-0.151424;-0.130392;-0.654297;-0.275635;0.401611;-0.193075;-0.660683;0.142960;-0.711183
28973;8.628907;-0.125860;1.181376;-0.035542;-0.224789;-0.148138;-0.651367;-0.268555;0.408447;-0.193903;-0.662056;0.142783;-0.709716
28974;8.994459;0.084429;1.032081;-0.139978;-0.314870;-0.150009;-0.643799;-0.273193;0.415039;-0.195146;-0.663815;0.143409;-0.707603
28975;9.447043;0.341504;0.981403;-0.306668;-0.381082;-0.167156;-0.645020;-0.276855;0.415039;-0.197447;-0.665720;0.145167;-0.704811
28976;9.724108;0.569924;1.160780;-0.560131;-0.414698;-0.193959;-0.645264;-0.286865;0.417969;-0.201178;-0.667407;0.148202;-0.701521
28977;9.988084;0.714329;1.442186;-0.849199;-0.464922;-0.205507;-0.636475;-0.292236;0.423096;-0.206515;-0.668878;0.152909;-0.697548
28978;10.449754;0.851449;1.832220;-1.140086;-0.504712;-0.228065;-0.630127;-0.304443;0.419922;-0.213591;-0.670068;0.159363;-0.692814
28979;11.426251;1.024964;2.225884;-1.469555;-0.485049;-0.229844;-0.630371;-0.320312;0.415039;-0.222541;-0.670454;0.167639;-0.687651
28980;13.418781;1.013269;1.884600;-1.772540;-0.492832;-0.177982;-0.630127;-0.332275;0.406006;-0.232786;-0.670097;0.177816;-0.682028
28981;15.696690;0.326558;0.845214;-1.860610;-0.532034;-0.185971;-0.622559;-0.341064;0.399658;-0.243337;-0.669626;0.188325;-0.675960
28982;16.998430;0.085623;0.147880;-1.566657;-0.542418;-0.324404;-0.621094;-0.351807;0.403809;-0.252921;-0.669879;0.196394;-0.669867
28983;16.036895;0.808045;0.205106;-1.146665;-0.479483;-0.553791;-0.620850;-0.367920;0.396973;-0.261445;-0.670963;0.200712;-0.664206
28984;13.276343;2.444981;0.751932;-0.962436;-0.530472;-0.899744;-0.598389;-0.379150;0.394287;-0.270678;-0.673199;0.202022;-0.657817
28985;10.317566;3.643833;0.551337;-0.989070;-0.716366;-1.297317;-0.589600;-0.401367;0.398193;-0.282028;-0.676940;0.201822;-0.649215
28986;8.236997;3.783589;-0.021320;-1.218071;-0.838073;-1.571240;-0.572998;-0.428467;0.399414;-0.295850;-0.681089;0.201521;-0.638733
28987;7.177733;2.978208;-0.395961;-1.477498;-0.605842;-1.649675;-0.548096;-0.447266;0.397949;-0.311899;-0.683262;0.201546;-0.628690
28988;6.598984;1.793819;-0.595379;-1.443775;-0.154783;-1.628865;-0.537598;-0.476318;0.391846;-0.328338;-0.682922;0.200408;-0.621006
28989;6.676807;0.928289;-0.608956;-1.294581;0.049995;-1.605853;-0.525391;-0.501953;0.376709;-0.344047;-0.681693;0.197994;-0.614593
28990;7.510129;0.371457;-0.838606;-0.905395;0.055820;-1.567828;-0.515625;-0.517578;0.355957;-0.357307;-0.681285;0.193714;-0.608816
28991;8.721151;0.476969;-1.078965;-0.349373;0.043185;-1.467392;-0.502930;-0.536865;0.377441;-0.366775;-0.682243;0.187064;-0.604175
28992;9.567982;1.279089;-1.187865;0.137260;0.023652;-1.279292;-0.500977;-0.541504;0.359131;-0.372406;-0.684534;0.179211;-0.600508
28993;10.123136;2.633564;-1.373323;0.401682;-0.031192;-1.030798;-0.488525;-0.549561;0.373535;-0.375062;-0.687376;0.171388;-0.597887
28994;10.306228;3.902559;-1.254497;0.302198;-0.099160;-0.748474;-0.479980;-0.549561;0.376221;-0.376783;-0.689856;0.165970;-0.595472
28995;10.043403;4.129248;-0.823562;-0.120923;-0.222112;-0.511297;-0.468750;-0.562744;0.365967;-0.379564;-0.691269;0.164403;-0.592494
28996;9.676824;3.365285;-0.434153;-0.491763;-0.336842;-0.330328;-0.464355;-0.560059;0.367676;-0.383621;-0.691740;0.166145;-0.588835
28997;9.312962;2.361442;-0.324878;-0.668249;-0.330403;-0.207302;-0.467773;-0.560791;0.370850;-0.387989;-0.691453;0.169417;-0.585368
28998;8.867262;1.534700;-0.091759;-0.640119;-0.281939;-0.109746;-0.463135;-0.575439;0.361816;-0.391594;-0.690899;0.172853;-0.582610
28999;8.573619;0.878884;0.080513;-0.484386;-0.198799;-0.027577;-0.457764;-0.577148;0.355713;-0.394155;-0.690272;0.175793;-0.580744
29000;8.335169;0.452214;0.125080;-0.252425;-0.133811;0.029562;-0.459717;-0.577881;0.362549;-0.395260;-0.689986;0.177784;-0.579725
29001;8.248588;0.242601;-0.036401;0.013956;-0.122082;0.061500;-0.454834;-0.576660;0.355957;-0.394597;-0.690521;0.178572;-0.579298
29002;8.277088;0.169920;-0.204591;0.304816;-0.133949;0.103307;-0.466553;-0.573486;0.363037;-0.392158;-0.691961;0.178331;-0.579310
29003;8.266479;0.134760;-0.456501;0.586269;-0.125933;0.178856;-0.462646;-0.565430;0.370605;-0.387560;-0.694170;0.177027;-0.580161
29004;8.157172;0.214865;-0.528037;0.830337;-0.121614;0.275659;-0.471436;-0.563232;0.383301;-0.381109;-0.696986;0.175121;-0.581635
29005;8.071263;0.371645;-0.596822;1.018092;-0.123851;0.384325;-0.468018;-0.556885;0.386230;-0.372929;-0.700214;0.172859;-0.583732
29006;8.015332;0.590038;-0.682581;1.155639;-0.116128;0.494636;-0.462891;-0.537109;0.394531;-0.363557;-0.703560;0.170666;-0.586262
29007;8.055316;0.786926;-0.701805;1.251173;-0.097668;0.593780;-0.472656;-0.521484;0.407959;-0.353205;-0.706873;0.168606;-0.589194
29008;8.192024;1.006617;-0.633034;1.236025;-0.060584;0.665755;-0.480469;-0.511475;0.422852;-0.342490;-0.709769;0.166851;-0.592528
29009;8.423213;0.955923;-0.629923;1.149453;-0.004369;0.721674;-0.479980;-0.495850;0.428223;-0.332009;-0.711983;0.165623;-0.596171
29010;8.728146;0.670818;-0.592179;1.075611;0.076134;0.738013;-0.493652;-0.487305;0.434570;-0.322068;-0.713462;0.164716;-0.600094
29011;9.125881;0.452695;-0.499923;1.095953;0.127973;0.726582;-0.498779;-0.471680;0.442383;-0.312075;-0.714640;0.163481;-0.604296
29012;9.555136;0.259659;-0.334545;1.232317;0.187582;0.693619;-0.503418;-0.452393;0.454102;-0.301480;-0.715826;0.161190;-0.608868
29013;10.398856;0.128522;-0.466774;1.447907;0.212106;0.664385;-0.513184;-0.437988;0.453369;-0.289677;-0.717384;0.157483;-0.613716
29014;11.603109;0.088387;-0.913853;1.666780;0.238204;0.649633;-0.513184;-0.420898;0.467773;-0.276695;-0.719144;0.152599;-0.618857
29015;12.911439;0.269878;-1.423323;1.887771;0.320835;0.605984;-0.521729;-0.402832;0.482422;-0.262713;-0.720894;0.146095;-0.624460
29016;13.563526;0.657337;-1.580149;1.906866;0.499344;0.500373;-0.533447;-0.384033;0.487305;-0.249275;-0.721701;0.138377;-0.630763
29017;13.924485;1.723809;-1.675962;1.696883;0.719722;0.354800;-0.547363;-0.366455;0.494629;-0.238035;-0.720864;0.130401;-0.637723
29018;14.363564;3.404852;-1.774142;1.196655;1.017970;0.155562;-0.552002;-0.355469;0.487061;-0.231021;-0.717523;0.123163;-0.645462
29019;15.090327;4.959530;-0.875457;0.425085;1.085421;0.188523;-0.562256;-0.352051;0.473389;-0.228597;-0.712183;0.120233;-0.652750
29020;15.468808;4.313890;-0.068083;-0.360101;0.565692;0.368925;-0.559814;-0.341309;0.468994;-0.229376;-0.707909;0.123687;-0.656470
29021;14.291927;2.174971;0.142298;-0.558437;0.082475;0.310251;-0.569092;-0.346191;0.470459;-0.231087;-0.705985;0.128724;-0.656974
29022;11.589550;1.245801;0.340844;0.002417;-0.028940;-0.050286;-0.565918;-0.352539;0.467041;-0.231268;-0.706138;0.128692;-0.656751
29023;8.769950;1.944468;-0.278985;0.863273;0.129607;-0.404147;-0.561279;-0.343018;0.468994;-0.228657;-0.707415;0.121717;-0.657620
29024;6.485431;3.490424;-1.753573;1.426046;0.506539;-0.482509;-0.564453;-0.327393;0.467773;-0.223453;-0.707709;0.110407;-0.661080
29025;5.419296;5.209111;-1.990943;1.540851;0.799244;-0.258093;-0.562500;-0.329346;0.471191;-0.216368;-0.706257;0.099052;-0.666764
29026;6.019026;6.321514;-1.741455;1.201608;0.787680;0.144173;-0.576660;-0.321045;0.476562;-0.209358;-0.703804;0.092248;-0.672547
29027;7.480996;6.062132;-1.674047;0.493253;0.586495;0.581057;-0.583252;-0.309082;0.471680;-0.203776;-0.700849;0.092191;-0.677338
29028;9.196474;5.003131;-1.771116;-0.342021;0.443038;0.846121;-0.591553;-0.307861;0.468018;-0.201419;-0.697031;0.098589;-0.681071
29029;10.504479;3.485465;-1.738819;-1.141073;0.403026;1.005098;-0.594971;-0.309570;0.454834;-0.202832;-0.691880;0.110560;-0.684059
29030;10.964315;1.782689;-1.225371;-1.633822;0.276814;1.096324;-0.603516;-0.294434;0.435059;-0.206561;-0.686351;0.126183;-0.685808
29031;10.691568;0.027507;-0.423837;-1.612568;0.080854;1.053694;-0.608887;-0.305420;0.427979;-0.209700;-0.681843;0.141350;-0.686394
29032;10.125987;-0.856971;0.299185;-1.124216;-0.060555;0.868796;-0.615967;-0.306885;0.438232;-0.211200;-0.679046;0.153143;-0.686177
29033;9.524324;-1.481225;0.686643;-0.414737;-0.047495;0.607766;-0.616455;-0.302490;0.419922;-0.210175;-0.677755;0.159363;-0.686351
29034;8.862537;-1.217943;0.816780;0.242342;0.102428;0.387399;-0.618408;-0.288330;0.426758;-0.206886;-0.676958;0.160306;-0.687916
29035;8.076956;-0.255226;0.601563;0.596232;0.140590;0.263338;-0.609131;-0.286133;0.427490;-0.202136;-0.676770;0.158266;-0.689982
29036;7.621549;1.205884;0.418050;0.629348;0.071721;0.138716;-0.610840;-0.281006;0.430664;-0.198164;-0.677161;0.155754;-0.691321
29037;7.571389;2.036316;0.395063;0.364452;0.010438;0.043383;-0.631592;-0.279297;0.422607;-0.196153;-0.677584;0.154326;-0.691800
29038;7.564309;2.343896;0.444790;-0.105902;0.008840;-0.009055;-0.623535;-0.279785;0.431152;-0.196712;-0.677263;0.154918;-0.691824
29039;7.511960;2.019454;0.544115;-0.608793;0.026986;-0.027791;-0.614014;-0.291992;0.425781;-0.200426;-0.676067;0.158466;-0.691123
29040;7.475432;1.540620;0.651750;-1.045153;0.010681;-0.036738;-0.628418;-0.279297;0.418701;-0.207000;-0.674169;0.164831;-0.689549
29041;7.520877;1.104256;0.825663;-1.403033;-0.039778;-0.055985;-0.621582;-0.297363;0.416260;-0.214675;-0.672003;0.172364;-0.687471
29042;7.727302;0.671822;0.901952;-1.662369;-0.093056;-0.115870;-0.619629;-0.315430;0.400391;-0.224445;-0.669621;0.181501;-0.684317
29043;7.945523;0.250487;0.943466;-1.839435;-0.113736;-0.220272;-0.614990;-0.327393;0.407471;-0.235886;-0.666971;0.191187;-0.680407
29044;8.080309;-0.001058;1.027082;-1.932373;-0.114603;-0.332708;-0.616699;-0.342773;0.386230;-0.248392;-0.664232;0.200751;-0.675867
29045;8.124268;-0.198879;1.146362;-1.925846;-0.102113;-0.446284;-0.604492;-0.355469;0.382324;-0.261348;-0.661405;0.209436;-0.671101
29046;8.316042;-0.465656;1.257249;-1.842587;-0.099651;-0.556131;-0.609131;-0.378662;0.384766;-0.274419;-0.658809;0.217043;-0.666001
29047;8.747176;-0.748717;0.928557;-1.594668;-0.101867;-0.661397;-0.584961;-0.395508;0.361572;-0.286647;-0.656858;0.222671;-0.660900
29048;9.068879;-0.612657;0.513615;-1.207337;-0.059733;-0.730456;-0.599854;-0.409912;0.351318;-0.297512;-0.655521;0.225932;-0.656303
29049;9.572725;0.162977;0.197585;-0.777775;-0.117689;-0.676904;-0.589111;-0.423096;0.343018;-0.305249;-0.655413;0.226928;-0.652504
29050;10.648880;1.325008;-0.088324;-0.497220;-0.214873;-0.561903;-0.576660;-0.427002;0.344971;-0.310776;-0.656253;0.227386;-0.648881
29051;11.635316;2.569434;0.060317;-0.575196;-0.295574;-0.393591;-0.576172;-0.441650;0.344727;-0.315627;-0.657022;0.229383;-0.645047
29052;11.999874;3.318400;0.524382;-1.217450;-0.414512;-0.241947;-0.578125;-0.447754;0.337402;-0.323053;-0.656355;0.236061;-0.639617
29053;12.190083;3.024955;0.920862;-2.121452;-0.580316;-0.217401;-0.564697;-0.456543;0.334473;-0.334691;-0.653966;0.247895;-0.631552
29054;13.139766;1.566119;0.436708;-2.766212;-0.712064;-0.325187;-0.566406;-0.467041;0.323730;-0.349954;-0.650452;0.262779;-0.620800
29055;14.383100;0.061951;-0.470736;-2.887985;-0.702033;-0.489459;-0.555664;-0.489746;0.303467;-0.366197;-0.646603;0.276923;-0.609194
29056;14.390953;-0.838757;-0.619783;-2.554580;-0.578704;-0.672302;-0.548340;-0.512939;0.293701;-0.381820;-0.643146;0.287999;-0.598025
29057;13.364051;-1.514533;-0.445280;-1.810423;-0.500841;-0.868102;-0.541992;-0.533203;0.276855;-0.394510;-0.641887;0.294003;-0.588137
29058;11.764000;-1.746003;-0.222616;-0.746782;-0.379003;-1.060194;-0.526367;-0.535889;0.278076;-0.402750;-0.643801;0.293377;-0.580726
29059;10.542729;-1.018771;-0.038468;0.292049;-0.127664;-1.194880;-0.520264;-0.547852;0.273193;-0.406445;-0.648337;0.285967;-0.576788
29060;10.005770;0.218640;-0.206597;1.064160;0.164693;-1.246880;-0.504883;-0.546631;0.286377;-0.406942;-0.654030;0.273623;-0.575999
29061;9.845184;1.465414;-0.261479;1.433361;0.348751;-1.255920;-0.500000;-0.559326;0.295410;-0.405694;-0.660028;0.258680;-0.576940
29062;9.845679;2.448931;-0.181778;1.429608;0.421588;-1.197980;-0.488525;-0.562500;0.306396;-0.404367;-0.665309;0.243873;-0.578253
29063;10.051483;2.933165;-0.491763;1.294003;0.444663;-1.014049;-0.478516;-0.564453;0.315918;-0.402894;-0.669500;0.230623;-0.579879
29064;10.489749;3.123700;-0.919129;1.228302;0.437521;-0.714964;-0.478760;-0.576416;0.325928;-0.400294;-0.672814;0.219359;-0.582210
29065;10.786269;3.243479;-1.278576;1.313850;0.413224;-0.332598;-0.469238;-0.565186;0.328857;-0.395387;-0.675698;0.209974;-0.585673
29066;10.582010;3.193966;-1.230556;1.394643;0.365606;0.059599;-0.473633;-0.554199;0.341309;-0.388031;-0.678288;0.202578;-0.590186
29067;9.938808;2.848211;-1.051766;1.375188;0.321835;0.369961;-0.473389;-0.558838;0.354492;-0.379035;-0.680440;0.197071;-0.595397
29068;9.108775;2.553371;-0.672367;1.257405;0.321621;0.555430;-0.487549;-0.518311;0.364258;-0.370054;-0.681771;0.193392;-0.600707
29069;8.221765;2.119318;-0.256144;1.135301;0.320187;0.634778;-0.490723;-0.526123;0.371338;-0.360690;-0.682649;0.190284;-0.606370
29070;7.558659;1.718185;0.080331;1.075151;0.322615;0.655739;-0.497314;-0.503174;0.369141;-0.351958;-0.683127;0.187897;-0.611684
29071;7.098335;1.306801;0.135378;1.114718;0.341068;0.669297;-0.509521;-0.502930;0.381836;-0.342761;-0.683533;0.185210;-0.617248
29072;6.800715;1.024139;0.134178;1.217816;0.369834;0.672636;-0.519531;-0.485596;0.379150;-0.333119;-0.683961;0.182030;-0.622972
29073;6.611254;0.748498;-0.007645;1.305238;0.378120;0.674657;-0.526855;-0.471191;0.389160;-0.322854;-0.684463;0.178333;-0.628866
29074;6.491600;0.668735;-0.248991;1.371169;0.394870;0.672980;-0.531738;-0.454346;0.391846;-0.312189;-0.684958;0.174191;-0.634845
29075;6.454572;0.797068;-0.522762;1.382417;0.421329;0.664786;-0.533936;-0.437744;0.402344;-0.301478;-0.685234;0.169836;-0.640876
29076;6.653868;1.062094;-0.775275;1.261205;0.468161;0.687919;-0.550537;-0.420410;0.415527;-0.291381;-0.684832;0.166107;-0.646924
29077;7.101470;1.220678;-1.161439;1.078178;0.542859;0.745091;-0.551270;-0.410400;0.408203;-0.281941;-0.683433;0.163388;-0.653248
29078;7.561264;1.369341;-1.468232;0.860551;0.642618;0.830854;-0.564209;-0.399414;0.409912;-0.273533;-0.680733;0.162206;-0.659903
29079;7.940412;1.419618;-1.595723;0.597746;0.716415;0.936857;-0.567627;-0.386230;0.406738;-0.266131;-0.676792;0.162911;-0.666773
29080;8.541759;1.514217;-1.613643;0.325192;0.713886;1.063600;-0.592285;-0.375488;0.403564;-0.259594;-0.672015;0.165857;-0.673423
29081;8.891293;1.340701;-1.404809;0.099179;0.614514;1.156729;-0.589355;-0.363525;0.397461;-0.253553;-0.667077;0.170761;-0.679382
29082;9.355895;0.695094;-1.008523;-0.000731;0.443834;1.175933;-0.610107;-0.345947;0.394043;-0.247814;-0.662800;0.176734;-0.684141
29083;10.417827;0.445661;-0.651974;0.105315;0.251972;1.180092;-0.608643;-0.339111;0.393311;-0.240923;-0.659773;0.182354;-0.688042
29084;11.522091;0.358681;-0.275787;0.256623;0.133344;1.162175;-0.621094;-0.320801;0.390869;-0.233334;-0.657672;0.187382;-0.691311
29085;12.387566;0.331648;0.112128;0.358680;0.050035;1.111361;-0.630615;-0.306885;0.397705;-0.225139;-0.656274;0.191560;-0.694205
29086;12.598751;0.880704;0.673530;0.244409;0.001778;0.957729;-0.631592;-0.296875;0.392822;-0.218396;-0.655130;0.195676;-0.696289
29087;13.255611;1.370975;1.143868;-0.024640;-0.028751;0.750128;-0.636475;-0.284912;0.386230;-0.214262;-0.653967;0.200242;-0.697368
29088;15.304175;0.997345;0.996810;-0.374905;0.024459;0.637261;-0.643066;-0.282715;0.398438;-0.212573;-0.652050;0.205959;-0.698015
29089;16.801406;-0.527144;1.408910;-0.646425;0.158426;0.651517;-0.634277;-0.286865;0.387695;-0.212698;-0.648799;0.213275;-0.698808
29090;16.071013;-1.525710;2.466103;-0.477446;0.158726;0.543402;-0.647461;-0.281738;0.383057;-0.212703;-0.645980;0.219094;-0.699618
29091;13.095001;-1.203930;2.974029;0.237640;0.104340;0.264413;-0.641113;-0.274414;0.379883;-0.210253;-0.645237;0.219253;-0.700992
29092;9.450156;0.253010;1.702622;1.041648;0.205505;-0.043406;-0.645508;-0.269531;0.393311;-0.205369;-0.645879;0.212791;-0.703835
29093;6.597120;2.455606;-0.353108;1.431487;0.485130;-0.185134;-0.649170;-0.270752;0.394531;-0.199856;-0.645708;0.202949;-0.708471
29094;5.105303;5.032633;-1.906402;1.391292;0.610229;-0.096873;-0.650879;-0.260010;0.377686;-0.194430;-0.644443;0.193717;-0.713697
29095;6.275755;6.212330;-1.549673;0.979727;0.373016;0.114272;-0.649658;-0.243408;0.378174;-0.189193;-0.643552;0.188069;-0.717410
29096;9.005854;5.413844;-0.620665;0.089221;-0.055638;0.274879;-0.659912;-0.239258;0.380371;-0.186880;-0.643594;0.189126;-0.717700
29097;11.469346;4.322094;0.033375;-0.832943;-0.346150;0.239503;-0.656006;-0.250000;0.387695;-0.189250;-0.643957;0.195948;-0.714919
29098;12.639812;2.750817;0.632865;-1.509833;-0.424719;0.060461;-0.650391;-0.257812;0.385010;-0.196472;-0.643895;0.206183;-0.710131
29099;12.506408;1.272137;0.898133;-1.880507;-0.399009;-0.178628;-0.650391;-0.282471;0.379150;-0.207052;-0.643355;0.217199;-0.704307
29100;11.443405;0.240389;0.786600;-1.980666;-0.348816;-0.373061;-0.638428;-0.283936;0.376465;-0.219517;-0.642465;0.227706;-0.697998
29101;10.104227;-0.133565;0.633433;-1.925076;-0.318553;-0.525160;-0.642578;-0.309326;0.376709;-0.232284;-0.641684;0.236797;-0.691529
29102;8.966265;-0.212400;0.495440;-1.830350;-0.315299;-0.669342;-0.635254;-0.321533;0.371094;-0.245521;-0.641109;0.244678;-0.684713
29103;8.248466;-0.088314;0.302392;-1.745198;-0.295334;-0.807622;-0.620850;-0.346436;0.363281;-0.258932;-0.640737;0.251140;-0.677745
29104;7.734555;0.085979;0.139790;-1.691001;-0.261384;-0.923928;-0.624512;-0.357422;0.349121;-0.272824;-0.640343;0.256603;-0.670584
29105;7.327796;0.024728;-0.052600;-1.613964;-0.247095;-0.980674;-0.613281;-0.388184;0.344971;-0.286283;-0.640053;0.260967;-0.663528
29106;7.166109;0.124269;-0.010017;-1.497140;-0.287303;-1.034234;-0.610596;-0.402588;0.327393;-0.299513;-0.640159;0.264638;-0.656091
29107;7.190033;0.094870;0.065893;-1.432660;-0.319611;-1.066155;-0.593018;-0.417725;0.336182;-0.312220;-0.640563;0.267585;-0.648534
29108;7.216513;-0.160386;0.050742;-1.369409;-0.342750;-1.082531;-0.587158;-0.437744;0.319580;-0.324649;-0.641155;0.270271;-0.640684
29109;7.358106;-0.110920;0.319343;-1.294862;-0.381620;-1.099717;-0.573730;-0.460449;0.329102;-0.336553;-0.642056;0.272410;-0.632685
29110;7.660643;-0.149483;0.562740;-1.325116;-0.465114;-1.103901;-0.569824;-0.475830;0.318115;-0.348552;-0.643148;0.275071;-0.623865
29111;8.099459;-0.367791;0.687673;-1.357775;-0.505361;-1.098128;-0.560059;-0.498047;0.307129;-0.360421;-0.644209;0.277889;-0.614711
29112;8.554928;-0.329591;0.896895;-1.399540;-0.484589;-1.085512;-0.551758;-0.504883;0.306885;-0.372441;-0.644838;0.280860;-0.605466
29113;8.987324;-0.477369;0.978651;-1.476456;-0.436980;-1.045876;-0.540283;-0.526123;0.298340;-0.384562;-0.644794;0.284154;-0.596329
29114;9.236345;-0.730758;0.920022;-1.466679;-0.365839;-1.006219;-0.528809;-0.533936;0.285400;-0.396568;-0.644162;0.287359;-0.587549
29115;9.383623;-1.049338;0.973013;-1.391668;-0.310934;-0.962999;-0.516113;-0.565430;0.271973;-0.407889;-0.643307;0.290082;-0.579340
29116;9.525445;-1.188831;1.105061;-1.154941;-0.286318;-0.924774;-0.501953;-0.568359;0.268311;-0.417947;-0.642849;0.291866;-0.571734
29117;9.952896;-1.024578;1.048272;-0.786549;-0.283916;-0.863933;-0.496094;-0.575928;0.263916;-0.425593;-0.643482;0.292108;-0.565220
29118;10.714259;-0.549752;0.690109;-0.402303;-0.298355;-0.762785;-0.487305;-0.588135;0.263916;-0.430580;-0.645265;0.291083;-0.559915
29119;11.575883;0.296682;0.260171;0.026418;-0.306761;-0.614994;-0.485107;-0.599121;0.260986;-0.432580;-0.648220;0.288907;-0.556074
29120;12.215955;1.043699;-0.089015;0.329738;-0.302157;-0.420914;-0.473877;-0.598145;0.266357;-0.432075;-0.651731;0.286382;-0.553663
29121;12.664807;1.986425;0.284480;0.401567;-0.299780;-0.205202;-0.470947;-0.596191;0.279785;-0.430171;-0.654974;0.284657;-0.552206
29122;13.590146;2.362159;0.304251;0.226876;-0.314537;0.008937;-0.468750;-0.598389;0.282471;-0.428177;-0.657155;0.284951;-0.551012
29123;13.967885;2.696502;-0.159498;0.061006;-0.303459;0.171016;-0.477539;-0.593750;0.282471;-0.426402;-0.658286;0.286869;-0.550042
29124;13.253037;2.788987;-0.313676;-0.035749;-0.277602;0.319032;-0.475098;-0.592041;0.284912;-0.424467;-0.658604;0.289931;-0.549553
29125;11.977701;1.892144;-1.086805;0.127642;-0.232768;0.456986;-0.475830;-0.591797;0.292969;-0.421129;-0.658947;0.292835;-0.550170
29126;10.471238;0.969858;-1.463219;0.643809;-0.117623;0.515118;-0.481934;-0.580322;0.294678;-0.415009;-0.660399;0.293303;-0.552824
29127;9.198243;0.668951;-1.241903;1.248957;0.076897;0.538750;-0.487061;-0.569580;0.312988;-0.405835;-0.662943;0.290390;-0.558102
29128;8.369413;0.753446;-0.818400;1.694151;0.289862;0.543450;-0.492432;-0.556885;0.318848;-0.394631;-0.665881;0.284662;-0.565541
29129;8.271443;0.890716;-0.644994;1.957785;0.457310;0.576175;-0.501465;-0.539795;0.340088;-0.382106;-0.668636;0.277249;-0.574503
29130;8.642152;1.085791;-0.620086;2.102204;0.591383;0.630578;-0.515869;-0.523926;0.343506;-0.368689;-0.670874;0.268923;-0.584531
29131;9.311676;1.273245;-0.627202;2.213090;0.692235;0.726737;-0.521484;-0.510742;0.363281;-0.354252;-0.672472;0.260210;-0.595464
29132;10.517485;1.274015;-0.980877;2.355432;0.776964;0.890163;-0.532227;-0.475830;0.370117;-0.338328;-0.673407;0.251367;-0.607348
29133;11.970458;1.185466;-1.571570;2.543974;0.888326;1.106076;-0.547607;-0.457520;0.385010;-0.320159;-0.673535;0.242240;-0.620619
29134;12.815233;1.385832;-1.715817;2.655727;0.955950;1.348036;-0.570801;-0.434082;0.387939;-0.300140;-0.672674;0.233622;-0.634702
29135;12.687952;1.874087;-1.383774;2.557531;0.890633;1.514883;-0.594971;-0.399902;0.400879;-0.279495;-0.671099;0.226526;-0.648224
29136;11.792739;2.097958;-0.790776;2.196472;0.767721;1.559124;-0.597168;-0.367676;0.399658;-0.260199;-0.668851;0.221787;-0.660110
29137;10.643408;1.999997;-0.330496;1.734100;0.671116;1.507042;-0.606689;-0.342041;0.415039;-0.243436;-0.665935;0.219324;-0.670198
29138;9.686141;1.419640;-0.104556;1.417514;0.640380;1.391309;-0.619141;-0.315674;0.413086;-0.229012;-0.662548;0.217987;-0.679018
29139;8.988863;0.794472;0.066983;1.325455;0.651483;1.255959;-0.632812;-0.303955;0.413086;-0.215774;-0.658982;0.216318;-0.687307
29140;8.486753;0.456884;0.212866;1.304672;0.652070;1.112735;-0.643555;-0.279053;0.403809;-0.203542;-0.655444;0.213989;-0.695106
29141;8.129556;0.350897;0.210996;1.201051;0.601516;0.974074;-0.641602;-0.252930;0.404297;-0.192442;-0.652129;0.211481;-0.702118
29142;7.784052;0.301566;0.028940;1.011707;0.556751;0.851350;-0.657227;-0.242432;0.395508;-0.182902;-0.648920;0.209385;-0.708242
29143;7.469864;0.490079;-0.142009;0.705124;0.516557;0.749852;-0.663574;-0.233154;0.398193;-0.175547;-0.645543;0.208597;-0.713403
29144;7.143775;0.483150;-0.226774;0.422439;0.514027;0.686065;-0.667969;-0.219971;0.393555;-0.170157;-0.641831;0.209176;-0.717875
29145;6.953460;0.316001;-0.270490;0.118686;0.493053;0.646443;-0.679443;-0.210449;0.389160;-0.166543;-0.637856;0.211353;-0.721618
29146;6.912805;0.092823;-0.500229;-0.177724;0.474435;0.649340;-0.685547;-0.220215;0.382812;-0.164432;-0.633535;0.215347;-0.724721
29147;6.971393;-0.206742;-0.785589;-0.409020;0.490262;0.669209;-0.687256;-0.208984;0.370850;-0.163621;-0.628710;0.220863;-0.727442
29148;7.103561;-0.340840;-0.917450;-0.532002;0.499122;0.698466;-0.700195;-0.193115;0.371826;-0.163165;-0.623581;0.227176;-0.730010
29149;7.326802;-0.685251;-0.903433;-0.554440;0.463030;0.726714;-0.702881;-0.190918;0.358398;-0.162506;-0.618550;0.233837;-0.732331
29150;7.659989;-1.039368;-0.749179;-0.470470;0.368751;0.725635;-0.705322;-0.194824;0.360596;-0.161211;-0.614166;0.240046;-0.734295
29151;8.184917;-1.258613;-0.456796;-0.331978;0.223740;0.665671;-0.706299;-0.179443;0.357178;-0.159431;-0.610944;0.245373;-0.735610
29152;9.177912;-1.561651;-0.260372;-0.133875;0.060731;0.523483;-0.705811;-0.176514;0.348145;-0.157066;-0.609272;0.248941;-0.736306
29153;10.722226;-1.148876;-0.056062;0.108498;-0.088565;0.378064;-0.707520;-0.171143;0.359863;-0.154014;-0.609125;0.250408;-0.736574
29154;11.663456;-0.211736;0.418292;-0.063067;-0.155820;0.216931;-0.711914;-0.173584;0.355469;-0.152749;-0.609504;0.252289;-0.735882
29155;12.123773;0.490989;1.260505;-0.644159;-0.205385;0.091364;-0.709229;-0.180176;0.355713;-0.155095;-0.609686;0.257101;-0.733572
29156;12.940394;1.019878;1.755262;-1.485355;-0.209471;-0.000319;-0.704590;-0.173828;0.351807;-0.162276;-0.608944;0.266565;-0.729244
29157;14.688912;0.317923;1.775597;-2.344257;-0.121971;-0.125029;-0.706055;-0.186279;0.355957;-0.174560;-0.606647;0.280367;-0.723120
29158;16.390941;-1.445908;1.946904;-2.927012;-0.027230;-0.216408;-0.707031;-0.219727;0.345215;-0.190517;-0.602844;0.297026;-0.715583
29159;16.062835;-3.600679;2.279279;-2.952628;-0.023121;-0.412014;-0.709961;-0.238281;0.332031;-0.207778;-0.599072;0.312669;-0.707234
29160;12.965513;-4.553158;2.389739;-2.316597;-0.018259;-0.769278;-0.699951;-0.255859;0.317627;-0.223831;-0.596986;0.322580;-0.699607
29161;9.430883;-3.334362;1.484712;-1.207723;0.021706;-1.119451;-0.699707;-0.272461;0.306396;-0.236387;-0.597514;0.324060;-0.694322
29162;7.298011;-0.636077;0.281146;-0.183153;0.125858;-1.317957;-0.691650;-0.281250;0.311035;-0.245188;-0.599895;0.318318;-0.691869
29163;6.146789;2.029631;-0.311707;0.654572;0.284032;-1.297194;-0.685547;-0.306152;0.313232;-0.250036;-0.602953;0.307543;-0.692349
29164;6.326496;3.985166;-0.516932;1.069847;0.165285;-1.184276;-0.686768;-0.313477;0.315674;-0.251925;-0.607165;0.295164;-0.693371
29165;8.165448;5.463378;-0.150132;0.648853;-0.180333;-1.047090;-0.672852;-0.316406;0.321533;-0.254251;-0.612058;0.286579;-0.691819
29166;10.486488;6.116305;0.090632;-0.583729;-0.370573;-0.925921;-0.670654;-0.329102;0.321045;-0.261648;-0.615108;0.286084;-0.686541
29167;11.977912;5.251997;0.208256;-2.000511;-0.392702;-0.876608;-0.666260;-0.349365;0.315918;-0.275903;-0.614938;0.293912;-0.677750
29168;12.323205;3.063005;-0.104627;-2.948205;-0.397097;-0.929794;-0.664307;-0.383301;0.301270;-0.295164;-0.612431;0.306685;-0.666146
29169;11.965474;0.752827;-0.341945;-3.296197;-0.435919;-1.038410;-0.646484;-0.408936;0.289795;-0.316533;-0.609075;0.320686;-0.652682
29170;11.254400;-1.255346;-0.403480;-3.081462;-0.411681;-1.198134;-0.636963;-0.431396;0.272461;-0.337491;-0.606115;0.332418;-0.638923
29171;10.382773;-2.553519;-0.316560;-2.420531;-0.320501;-1.367519;-0.621338;-0.461426;0.252197;-0.356008;-0.604600;0.339304;-0.626570
29172;9.520412;-2.644686;0.124261;-1.594402;-0.226393;-1.512910;-0.618652;-0.472168;0.244385;-0.371273;-0.605180;0.340676;-0.616323
29173;8.892457;-2.412733;0.219314;-0.817980;-0.171949;-1.596548;-0.610596;-0.502930;0.237305;-0.383007;-0.607943;0.337419;-0.608161
29174;8.439777;-1.658849;0.308155;-0.211843;-0.126546;-1.615731;-0.582764;-0.514648;0.241943;-0.391888;-0.612313;0.330777;-0.601733
29175;8.219549;-0.742881;0.358228;0.152191;-0.089174;-1.556262;-0.578125;-0.531982;0.243896;-0.398629;-0.617462;0.322434;-0.596550
29176;8.106079;0.197463;0.316363;0.230476;-0.068730;-1.445952;-0.557373;-0.546875;0.245850;-0.404413;-0.622353;0.314173;-0.591965
29177;8.107150;0.758449;0.320416;-0.001183;-0.079012;-1.297642;-0.550293;-0.552246;0.246338;-0.410614;-0.626056;0.307786;-0.587126
29178;8.177336;1.051862;0.301261;-0.442511;-0.146035;-1.154533;-0.538818;-0.574707;0.238525;-0.418150;-0.628137;0.304526;-0.581256
29179;8.337291;0.881050;0.223768;-0.901244;-0.211326;-0.976964;-0.528076;-0.579346;0.226074;-0.427080;-0.628387;0.304580;-0.574424
29180;8.440704;0.590264;0.394349;-1.305497;-0.267949;-0.802722;-0.515869;-0.596680;0.222412;-0.437054;-0.626928;0.307635;-0.566838
29181;8.593747;0.047429;0.571377;-1.557294;-0.326541;-0.685499;-0.519531;-0.608398;0.209961;-0.447580;-0.624432;0.312644;-0.558579
29182;8.722026;-0.368901;0.911194;-1.639991;-0.329674;-0.602357;-0.503906;-0.621582;0.195801;-0.458021;-0.621267;0.318477;-0.550288
29183;8.763863;-0.731200;1.260146;-1.532415;-0.335880;-0.545086;-0.501465;-0.620361;0.175049;-0.467561;-0.618275;0.324024;-0.542338
29184;8.741409;-0.897269;1.497502;-1.259188;-0.348207;-0.511647;-0.493164;-0.637207;0.166992;-0.475383;-0.616188;0.328537;-0.535151
29185;8.690604;-1.014217;1.519003;-0.875335;-0.308948;-0.487835;-0.486572;-0.641602;0.172607;-0.481231;-0.615317;0.331251;-0.529220
29186;8.712753;-0.835815;1.481561;-0.431816;-0.268785;-0.463120;-0.487549;-0.640625;0.166748;-0.484731;-0.615996;0.331957;-0.524775
29187;9.000460;-0.412614;1.274635;-0.076354;-0.239016;-0.415953;-0.478271;-0.651611;0.160645;-0.486233;-0.617815;0.331278;-0.521667
29188;9.715166;0.070974;0.856253;0.227905;-0.236030;-0.314177;-0.480469;-0.644531;0.171631;-0.485800;-0.620538;0.329742;-0.519808
29189;10.754758;0.801972;0.576496;0.440871;-0.240186;-0.155315;-0.479004;-0.641113;0.180664;-0.483473;-0.623718;0.328174;-0.519164
29190;11.459659;1.172616;0.236500;0.502041;-0.208342;0.008703;-0.470703;-0.648682;0.183594;-0.480169;-0.626557;0.327064;-0.519512
29191;11.577172;1.203075;0.360421;0.477247;-0.172374;0.172471;-0.479248;-0.650635;0.191162;-0.476456;-0.628674;0.326693;-0.520606
29192;11.509790;0.705819;0.861210;0.365743;-0.183083;0.297261;-0.483154;-0.651611;0.187012;-0.472750;-0.630027;0.327539;-0.521815
29193;12.709851;-0.050069;0.456016;0.388391;-0.234401;0.374145;-0.476318;-0.641846;0.198486;-0.468495;-0.631426;0.328913;-0.523096
29194;13.452649;-0.101500;-1.061906;0.826677;-0.182090;0.462730;-0.495361;-0.637207;0.215576;-0.461644;-0.634088;0.328536;-0.526195
29195;13.175782;0.352930;-1.746145;1.609652;-0.190400;0.628451;-0.496582;-0.616943;0.224121;-0.449796;-0.639249;0.325686;-0.531952
29196;12.253192;0.255762;-2.069333;2.509297;-0.222574;0.801050;-0.510498;-0.604248;0.245361;-0.432143;-0.647219;0.319790;-0.540458
29197;10.880515;0.307524;-1.571862;3.234335;-0.143107;0.859637;-0.509766;-0.585205;0.295654;-0.410285;-0.656838;0.310522;-0.551186
29198;9.648094;0.820299;-0.974984;3.517458;0.128017;0.847945;-0.520508;-0.559082;0.313232;-0.387269;-0.665735;0.298554;-0.563635
29199;8.695299;1.266026;-0.913267;3.521904;0.433591;0.807285;-0.531982;-0.539795;0.353271;-0.364862;-0.672652;0.285157;-0.577148
29200;8.439240;1.619605;-0.860608;3.410534;0.636332;0.782340;-0.542969;-0.504395;0.369385;-0.343362;-0.677744;0.271231;-0.590930
29201;9.024716;1.947660;-1.002571;3.292819;0.807399;0.832255;-0.552490;-0.481201;0.384033;-0.322343;-0.680944;0.257476;-0.605075
29202;10.109580;1.940881;-1.427735;3.199204;1.000167;0.988007;-0.574219;-0.450684;0.401123;-0.301259;-0.682004;0.244332;-0.620013
29203;11.521756;1.945529;-1.959621;3.085378;1.260358;1.198583;-0.590576;-0.419922;0.412354;-0.279987;-0.680412;0.232129;-0.636210
29204;13.051727;1.926598;-2.327030;2.855341;1.496871;1.455876;-0.600342;-0.393066;0.406982;-0.258878;-0.675953;0.221826;-0.653347
29205;13.803182;1.867642;-2.568317;2.454844;1.654277;1.722223;-0.632324;-0.352539;0.412598;-0.238705;-0.668717;0.214654;-0.670643
29206;13.312931;1.954644;-1.988886;1.967725;1.583790;1.899636;-0.643799;-0.313965;0.397217;-0.219882;-0.660093;0.211170;-0.686539
29207;12.135634;1.838212;-1.382561;1.390676;1.316515;1.951510;-0.667236;-0.279541;0.387939;-0.203317;-0.651453;0.211613;-0.699636
29208;10.787096;1.600223;-1.126263;0.888254;1.077195;1.896824;-0.684814;-0.253662;0.377441;-0.189267;-0.643153;0.214999;-0.710147
29209;9.676090;1.206656;-0.931836;0.615980;0.972978;1.781948;-0.689209;-0.237549;0.376465;-0.177113;-0.635020;0.219464;-0.719178
29210;9.060526;0.587577;-0.899698;0.549444;0.892833;1.665870;-0.710938;-0.208984;0.375977;-0.165834;-0.627322;0.223756;-0.727255
29211;8.879737;0.159005;-0.776431;0.580607;0.817537;1.557268;-0.716553;-0.191650;0.353516;-0.154844;-0.620166;0.227346;-0.734664
29212;8.657955;-0.105649;-0.588861;0.580693;0.745358;1.462621;-0.724609;-0.165527;0.349854;-0.144276;-0.613477;0.230474;-0.741425
29213;8.417254;-0.189066;-0.372503;0.555115;0.669447;1.347862;-0.728760;-0.151367;0.343018;-0.134361;-0.607333;0.233225;-0.747462
29214;8.138677;-0.390692;-0.140659;0.477993;0.570166;1.220290;-0.743408;-0.134033;0.331787;-0.125429;-0.601875;0.235880;-0.752579
29215;7.785814;-0.754275;0.018827;0.383476;0.448088;1.036146;-0.747803;-0.112793;0.333740;-0.117866;-0.597363;0.238292;-0.756625
29216;7.592721;-1.146607;-0.172710;0.300839;0.337176;0.867256;-0.748535;-0.094727;0.332031;-0.111541;-0.593762;0.240491;-0.759717
29217;7.392700;-1.492959;-0.400818;0.271332;0.294535;0.733096;-0.753418;-0.090088;0.328857;-0.106113;-0.590639;0.242249;-0.762366
29218;7.237683;-1.599212;-0.507027;0.297016;0.263038;0.638926;-0.754883;-0.079102;0.321289;-0.101101;-0.587903;0.243389;-0.764794
29219;7.175321;-1.570874;-0.613974;0.307707;0.231416;0.556255;-0.758545;-0.076660;0.317871;-0.096494;-0.585522;0.244068;-0.766997
29220;7.141517;-1.618506;-0.558087;0.312013;0.180644;0.461443;-0.752441;-0.065430;0.322021;-0.092373;-0.583647;0.244281;-0.768863
29221;7.240984;-1.725889;-0.442220;0.348103;0.111846;0.385403;-0.757080;-0.060547;0.318115;-0.088423;-0.582388;0.243970;-0.770380
29222;7.558485;-1.725884;-0.354840;0.399306;0.024587;0.313560;-0.760010;-0.049561;0.314453;-0.084506;-0.581859;0.243028;-0.771516
29223;8.169562;-1.670683;-0.211054;0.384717;-0.059768;0.260677;-0.757324;-0.046387;0.306152;-0.080820;-0.581954;0.241975;-0.772169
29224;8.945600;-1.764626;-0.141277;0.236220;-0.131569;0.241107;-0.757324;-0.035400;0.314209;-0.077832;-0.582441;0.241802;-0.772163
29225;9.642975;-2.059387;-0.100978;0.015984;-0.216511;0.238718;-0.749756;-0.040527;0.317139;-0.075755;-0.583334;0.243122;-0.771281
29226;10.084628;-2.465682;0.023176;-0.215157;-0.259047;0.200299;-0.759277;-0.041992;0.320801;-0.074976;-0.584434;0.245759;-0.769687
29227;10.829033;-3.033412;0.515167;-0.405026;-0.313487;0.130091;-0.753662;-0.036621;0.333984;-0.075460;-0.585899;0.249289;-0.767387
29228;11.855362;-3.648853;1.157065;-0.480428;-0.429350;0.071193;-0.758545;-0.039551;0.336426;-0.076446;-0.588166;0.253130;-0.764291
29229;12.726818;-4.406419;2.164312;-0.234522;-0.519961;-0.006059;-0.745850;-0.034668;0.338623;-0.076523;-0.591313;0.255054;-0.761210
29230;13.066249;-5.242851;3.286085;0.530273;-0.464342;-0.119806;-0.743652;-0.034912;0.340332;-0.073662;-0.594816;0.251534;-0.759933
29231;11.915583;-4.994545;4.706774;1.496074;-0.395456;-0.391552;-0.744629;-0.033203;0.350098;-0.067870;-0.598982;0.240463;-0.760784
29232;10.774191;-3.946331;4.996818;2.193807;-0.383434;-0.730953;-0.745361;-0.038574;0.347168;-0.060757;-0.603983;0.223207;-0.762687
29233;10.348073;-2.460027;3.434844;2.559693;-0.297595;-0.924097;-0.748047;-0.020508;0.364014;-0.053166;-0.608711;0.202454;-0.765282
29234;10.364322;-0.666484;1.715127;2.586038;-0.126401;-0.973424;-0.738770;-0.022461;0.362549;-0.046003;-0.612123;0.181172;-0.768352
29235;10.790926;0.598693;0.149571;2.347933;-0.047556;-1.058760;-0.738281;-0.027588;0.364746;-0.040706;-0.614773;0.160839;-0.771056
29236;10.963978;0.846502;-0.371513;1.849010;-0.159708;-1.172961;-0.737549;-0.023193;0.361084;-0.038544;-0.617891;0.143083;-0.772174
29237;10.673868;0.487649;0.056142;1.198035;-0.378673;-1.322447;-0.734375;-0.039795;0.382324;-0.040402;-0.622204;0.128767;-0.771135
29238;10.396389;-0.269324;0.338459;0.582890;-0.584144;-1.482202;-0.721191;-0.050781;0.377197;-0.046274;-0.627696;0.117651;-0.768124
29239;10.173944;-0.869412;0.212847;0.292488;-0.631345;-1.548374;-0.728271;-0.073242;0.382568;-0.054017;-0.633306;0.108016;-0.764420
29240;9.939213;-1.291526;-0.037535;0.376067;-0.464311;-1.538917;-0.720703;-0.092285;0.393555;-0.061402;-0.637748;0.097763;-0.761545
29241;9.824325;-1.774340;-0.264076;0.637927;-0.230708;-1.461815;-0.718750;-0.094238;0.392578;-0.067095;-0.640673;0.086146;-0.760010
29242;9.853862;-2.464656;-0.275835;0.993652;-0.046091;-1.325661;-0.714844;-0.107910;0.396240;-0.070120;-0.642404;0.072898;-0.759662
29243;9.801619;-2.806597;-0.202464;1.314986;0.021035;-1.240144;-0.708984;-0.106445;0.403076;-0.070923;-0.643719;0.058027;-0.759756
29244;9.592085;-2.882862;-0.213123;1.546620;-0.071402;-1.228101;-0.704590;-0.122314;0.404297;-0.070337;-0.645603;0.041833;-0.759276
29245;9.506533;-2.669618;-0.216099;1.788874;-0.169890;-1.244462;-0.710449;-0.130615;0.409912;-0.068519;-0.648064;0.024045;-0.758116
29246;9.383130;-2.547859;-0.376613;2.031274;-0.224266;-1.279365;-0.710693;-0.132812;0.419434;-0.065581;-0.650772;0.004552;-0.756422
29247;9.486460;-2.319789;-0.606232;2.260524;-0.199119;-1.313782;-0.704346;-0.116699;0.422363;-0.061586;-0.653167;-0.016571;-0.754524
29248;9.397246;-1.964594;-0.671818;2.469604;-0.136706;-1.329892;-0.694336;-0.123291;0.430664;-0.056485;-0.654944;-0.039090;-0.752549
29249;9.507947;-1.953144;-0.769741;2.658138;-0.077976;-1.281374;-0.686523;-0.119385;0.431152;-0.050023;-0.656094;-0.062527;-0.750419
29250;9.594651;-1.850933;-0.882883;2.818767;0.082110;-1.132248;-0.702393;-0.110352;0.433594;-0.041636;-0.655981;-0.086177;-0.748685
29251;9.483785;-1.627393;-1.079216;3.014383;0.269040;-0.983803;-0.695557;-0.111328;0.440430;-0.031077;-0.654424;-0.110244;-0.747402
29252;9.329051;-1.371064;-1.424484;3.286237;0.401558;-0.862452;-0.693115;-0.094971;0.436523;-0.018164;-0.651753;-0.135278;-0.746048
29253;9.212038;-0.895952;-1.727725;3.671147;0.507640;-0.767736;-0.702637;-0.077148;0.438477;-0.002424;-0.648005;-0.162072;-0.744188
29254;9.029322;-0.080564;-2.057875;4.109680;0.595650;-0.702048;-0.702881;-0.052002;0.445068;0.016216;-0.643096;-0.191043;-0.741395
29255;8.927024;0.930925;-2.385981;4.522437;0.655134;-0.645767;-0.705322;-0.031982;0.430664;0.037488;-0.637003;-0.221985;-0.737255
29256;8.914711;2.018300;-2.588916;4.799033;0.682190;-0.547219;-0.706543;-0.003662;0.419434;0.060823;-0.629835;-0.253757;-0.731585
29257;8.931820;3.149164;-2.660957;4.772660;0.687793;-0.388341;-0.712158;0.028320;0.410889;0.084907;-0.621957;-0.284120;-0.724732
29258;8.981193;3.748212;-2.647455;4.505098;0.713190;-0.189855;-0.719727;0.051514;0.390137;0.108740;-0.613638;-0.311391;-0.717398
29259;9.058225;4.089124;-2.423382;4.151382;0.764199;0.025743;-0.725830;0.075928;0.386230;0.132041;-0.605060;-0.335000;-0.710101
29260;9.006577;4.180369;-1.978739;3.763975;0.840807;0.248651;-0.729980;0.108398;0.372559;0.154764;-0.596408;-0.354732;-0.703215
29261;8.766131;3.888876;-1.554288;3.299338;0.894590;0.435460;-0.738525;0.128906;0.347900;0.176302;-0.588041;-0.370418;-0.697076
29262;8.633879;3.410773;-1.328013;2.810725;0.910027;0.603324;-0.742432;0.150146;0.330078;0.196343;-0.580377;-0.382168;-0.691780
29263;8.717527;2.538146;-1.043523;2.341542;0.931873;0.757373;-0.739502;0.183838;0.310303;0.214962;-0.573528;-0.390223;-0.687446
29264;8.985260;1.284906;-0.775930;1.948567;0.996702;0.848606;-0.741943;0.192871;0.291260;0.232359;-0.567068;-0.395301;-0.684237
29265;10.144388;-0.070283;-0.683556;1.771872;1.000993;0.918768;-0.745605;0.215088;0.264160;0.249232;-0.560941;-0.398900;-0.681254
29266;11.932266;-1.140037;-1.169057;1.935130;0.957455;1.015286;-0.744141;0.244873;0.256348;0.267194;-0.554828;-0.402916;-0.677076
29267;12.905882;-1.670274;-1.582780;2.329225;0.897394;1.025366;-0.751221;0.255859;0.239990;0.286707;-0.547991;-0.409041;-0.670962
29268;12.438840;-1.698077;-1.655392;2.648080;0.779664;0.837067;-0.741455;0.291016;0.216064;0.306047;-0.540098;-0.417887;-0.663325
29269;11.090935;-1.389599;-1.703850;2.806411;0.669843;0.535933;-0.729492;0.293213;0.188721;0.323911;-0.531058;-0.428973;-0.655012
29270;10.061972;-0.981967;-2.228843;2.899424;0.730346;0.245176;-0.738525;0.309570;0.165283;0.340602;-0.520054;-0.441453;-0.647035
29271;9.661384;-0.678983;-3.171021;3.184401;0.959420;0.080146;-0.736084;0.317139;0.132080;0.358252;-0.506038;-0.455228;-0.639021
29272;10.228408;-0.177305;-4.144693;3.604631;1.283443;0.045867;-0.744141;0.323730;0.091797;0.378413;-0.488454;-0.470020;-0.630315
29273;11.127884;0.776591;-4.863219;3.970952;1.582556;0.182309;-0.743164;0.326416;0.054199;0.401528;-0.468098;-0.484721;-0.620246
29274;11.552408;1.659864;-4.772571;4.174114;1.690055;0.447598;-0.743164;0.340332;0.011719;0.426674;-0.446967;-0.498442;-0.608051
29275;11.599086;2.481809;-4.128993;3.983025;1.548136;0.699047;-0.740967;0.342041;-0.031250;0.451232;-0.427698;-0.510073;-0.594382
29276;11.488974;3.351213;-3.472851;3.283863;1.334977;0.891105;-0.727051;0.353271;-0.062500;0.472829;-0.412419;-0.517829;-0.581546
29277;11.191983;3.494569;-3.010538;2.240644;1.197219;1.020097;-0.717529;0.357178;-0.097412;0.490544;-0.402221;-0.520234;-0.571789
29278;10.560169;2.668009;-2.533775;1.142401;1.017194;1.081399;-0.703125;0.371094;-0.120361;0.503928;-0.397419;-0.517763;-0.565718
29279;10.000827;1.308999;-2.188842;0.304407;0.781683;1.037925;-0.702393;0.388672;-0.121094;0.513249;-0.396999;-0.512361;-0.562542
29280;9.566311;-0.000771;-1.994067;-0.029249;0.615158;0.939975;-0.695068;0.395752;-0.125000;0.520184;-0.398391;-0.506383;-0.560597
29281;9.289147;-0.917671;-1.785541;0.150184;0.526413;0.842985;-0.692627;0.405518;-0.136719;0.526833;-0.398963;-0.501934;-0.557977
29282;9.189624;-1.288203;-1.566262;0.649260;0.469386;0.777414;-0.680420;0.412598;-0.148438;0.534579;-0.397268;-0.500244;-0.553317
29283;9.216938;-1.143200;-1.498884;1.299007;0.419238;0.748508;-0.677246;0.417236;-0.154053;0.544090;-0.392737;-0.501795;-0.545826
29284;9.291513;-0.738462;-1.407047;1.869382;0.380477;0.729387;-0.666016;0.416016;-0.181885;0.555050;-0.385664;-0.506077;-0.535789
29285;9.318986;-0.181322;-1.259009;2.202308;0.318067;0.745040;-0.666748;0.424561;-0.200684;0.566762;-0.377193;-0.511917;-0.523877
29286;9.293845;0.422315;-1.062208;2.276448;0.235016;0.798363;-0.653076;0.422363;-0.214844;0.578350;-0.368850;-0.518090;-0.510924
29287;9.367235;0.758659;-1.072404;2.179469;0.156897;0.858056;-0.645264;0.424072;-0.231445;0.589319;-0.361438;-0.523837;-0.497654
29288;9.345043;0.859775;-1.135353;1.999892;0.144865;0.916528;-0.640381;0.430664;-0.251953;0.599729;-0.355085;-0.528532;-0.484659
29289;9.308487;0.931104;-1.019021;1.773028;0.151382;0.988386;-0.632568;0.429932;-0.276123;0.609628;-0.350031;-0.531883;-0.472157
29290;9.303580;1.033412;-0.768169;1.451987;0.119028;1.051355;-0.627197;0.433105;-0.278564;0.618586;-0.346829;-0.533830;-0.460529
29291;9.358724;0.900136;-0.487710;1.091648;0.053301;1.088904;-0.611816;0.438721;-0.287598;0.626139;-0.345908;-0.534556;-0.450053
29292;9.435026;0.436472;-0.202506;0.815344;-0.030673;1.046004;-0.610596;0.444580;-0.297363;0.632312;-0.346504;-0.534695;-0.440701
29293;9.489855;0.115229;-0.022597;0.699851;-0.081544;0.949948;-0.607666;0.444824;-0.298828;0.637491;-0.347374;-0.534937;-0.432180
29294;9.473765;-0.099517;0.074284;0.758524;-0.111144;0.823594;-0.596436;0.460449;-0.293457;0.642122;-0.347424;-0.535932;-0.423972
29295;9.503642;-0.171281;0.143375;0.938016;-0.126857;0.689518;-0.581787;0.458252;-0.306885;0.646655;-0.346166;-0.537864;-0.415582
29296;9.577365;0.149491;0.184653;1.145965;-0.132692;0.533415;-0.588623;0.459229;-0.314209;0.651291;-0.342941;-0.540904;-0.406982
29297;9.782249;0.825278;0.333362;1.197383;-0.141719;0.387089;-0.580811;0.461182;-0.316895;0.655384;-0.338764;-0.544593;-0.398910
29298;10.196989;1.231696;0.635496;0.965949;-0.173815;0.274574;-0.575684;0.452881;-0.329590;0.658246;-0.335525;-0.547889;-0.392367
29299;10.683493;1.180601;0.859934;0.491170;-0.200955;0.147255;-0.579834;0.454102;-0.333984;0.659297;-0.334229;-0.550124;-0.388565
29300;11.842940;0.997647;1.284467;-0.055483;-0.263049;0.011632;-0.584961;0.454590;-0.327881;0.658081;-0.335502;-0.551313;-0.387842
29301;14.188010;0.051439;1.559996;-0.619055;-0.476226;-0.094633;-0.583496;0.456543;-0.320801;0.653879;-0.340091;-0.552177;-0.389719
29302;15.155595;-1.895698;1.466276;-1.029951;-0.694507;-0.287035;-0.589600;0.466309;-0.299561;0.646896;-0.346690;-0.553361;-0.393857
29303;13.445203;-2.308701;2.217064;-0.895555;-0.867937;-0.661773;-0.596436;0.460449;-0.289307;0.638125;-0.351539;-0.556893;-0.398856
29304;11.994007;-1.402958;1.797054;-0.252760;-0.900440;-0.991122;-0.608643;0.447754;-0.275391;0.629985;-0.351375;-0.563637;-0.402452
29305;10.761226;0.501994;0.560555;0.488490;-0.567902;-1.036964;-0.624756;0.430420;-0.273682;0.625286;-0.345929;-0.571249;-0.403764
29306;8.545160;3.090038;0.481279;0.966030;-0.194860;-0.798389;-0.629639;0.425293;-0.280518;0.624407;-0.337742;-0.577872;-0.402630
29307;6.819408;4.469589;1.094771;0.995650;-0.212850;-0.567083;-0.636963;0.410400;-0.281494;0.624320;-0.330632;-0.583862;-0.400015
29308;7.346915;4.224820;1.519898;0.675957;-0.539574;-0.484508;-0.645020;0.411865;-0.280273;0.621887;-0.326630;-0.590295;-0.397645
29309;9.019620;3.784377;1.027615;0.131003;-0.718157;-0.459838;-0.647705;0.397461;-0.272949;0.617165;-0.326297;-0.595642;-0.397302
29310;10.344551;3.688234;0.945587;-0.382370;-0.582281;-0.446566;-0.655762;0.396240;-0.260010;0.611725;-0.328058;-0.598605;-0.399804
29311;11.245096;3.729915;1.755038;-0.914151;-0.472144;-0.504702;-0.660156;0.394287;-0.251221;0.605063;-0.331937;-0.599365;-0.405559
29312;11.762907;3.038147;2.381310;-1.376215;-0.495534;-0.679682;-0.662842;0.394043;-0.244141;0.596389;-0.337251;-0.599065;-0.414371
29313;11.595135;1.741800;2.143292;-1.615194;-0.506733;-0.896425;-0.666504;0.398193;-0.208008;0.586290;-0.342546;-0.598387;-0.425274
29314;11.008111;0.517204;1.598390;-1.497065;-0.447764;-1.093415;-0.676025;0.384033;-0.198975;0.575696;-0.346498;-0.598186;-0.436677
29315;10.364827;-0.160258;1.294285;-1.049555;-0.271135;-1.231146;-0.690918;0.379395;-0.197998;0.566713;-0.346615;-0.599133;-0.446916
29316;9.474747;-0.235865;0.907145;-0.410367;-0.095098;-1.347259;-0.699951;0.354980;-0.187500;0.560070;-0.342342;-0.601807;-0.454919
29317;8.622620;0.240991;0.766330;0.172183;-0.038991;-1.422330;-0.702148;0.340576;-0.196533;0.554828;-0.334623;-0.606739;-0.460501
29318;8.123959;0.943833;0.858888;0.498279;-0.073641;-1.462797;-0.711426;0.320312;-0.198242;0.550312;-0.325198;-0.612980;-0.464390
29319;7.940981;1.306978;0.665051;0.529335;-0.093889;-1.463911;-0.724854;0.309326;-0.193359;0.545656;-0.315627;-0.619362;-0.468006
29320;7.817518;1.436058;0.561697;0.345857;-0.068716;-1.411109;-0.721191;0.283447;-0.198486;0.540660;-0.307277;-0.624624;-0.472348
29321;7.720074;1.210336;0.573472;0.102449;-0.005896;-1.322297;-0.735107;0.266602;-0.198486;0.535766;-0.299979;-0.628365;-0.477625
29322;7.554514;0.886450;0.617430;-0.159145;0.030083;-1.235758;-0.744141;0.253418;-0.203125;0.530611;-0.294115;-0.630666;-0.483950
29323;7.480523;0.396795;0.527244;-0.380779;0.000376;-1.140545;-0.739990;0.250000;-0.190430;0.525156;-0.289769;-0.631881;-0.490888
29324;7.528279;0.115368;0.642776;-0.472845;-0.093070;-1.030496;-0.744385;0.230957;-0.196045;0.519330;-0.287140;-0.632687;-0.497549
29325;7.821516;-0.111843;0.745741;-0.515324;-0.200305;-0.930703;-0.754883;0.221436;-0.193115;0.513301;-0.285325;-0.633563;-0.503696
29326;8.096652;-0.270156;0.860292;-0.463936;-0.229735;-0.787224;-0.764160;0.209961;-0.176514;0.507782;-0.284139;-0.634413;-0.508865
29327;8.185585;-0.345862;1.005964;-0.340943;-0.204728;-0.635654;-0.755371;0.201660;-0.179932;0.503031;-0.283255;-0.635402;-0.512826
29328;8.072534;-0.202908;1.063104;-0.116040;-0.173219;-0.462545;-0.761963;0.205322;-0.182617;0.499917;-0.282051;-0.636728;-0.514886
29329;8.228199;0.287690;1.011071;0.161685;-0.136389;-0.288092;-0.754639;0.198242;-0.172363;0.498525;-0.280549;-0.638549;-0.514802
29330;8.884708;1.176273;0.753254;0.376855;-0.111452;-0.052720;-0.763184;0.196533;-0.183594;0.498646;-0.279385;-0.640681;-0.512664
29331;9.969222;2.002122;0.427723;0.439641;-0.120999;0.228812;-0.759521;0.196289;-0.171387;0.500199;-0.279309;-0.642439;-0.508979
29332;11.160127;2.353356;0.472775;0.306988;-0.150045;0.477837;-0.758301;0.198975;-0.175049;0.502125;-0.281400;-0.643229;-0.504916
29333;12.079802;2.154970;0.522111;0.094202;-0.185843;0.654060;-0.761963;0.207031;-0.174805;0.504152;-0.285341;-0.642853;-0.501149
29334;12.998666;1.773721;0.606620;-0.083541;-0.242875;0.774214;-0.754883;0.217529;-0.166016;0.505928;-0.290873;-0.641674;-0.497678
29335;14.630519;1.445650;-0.031615;0.032957;-0.336465;0.894081;-0.750000;0.227051;-0.158447;0.507898;-0.297032;-0.641039;-0.492829
29336;15.803878;0.995085;-0.974568;0.859108;-0.388187;1.029892;-0.746094;0.250488;-0.166016;0.512093;-0.300631;-0.643634;-0.482822
29337;15.975422;1.040066;-0.490603;1.985235;-0.456044;1.193475;-0.745850;0.252441;-0.168213;0.519536;-0.300583;-0.650260;-0.465719
29338;14.873145;1.123383;0.089238;2.598837;-0.397005;1.245842;-0.740723;0.258301;-0.171143;0.528697;-0.297630;-0.658686;-0.445004
29339;12.332139;1.466486;0.747713;2.739941;-0.182441;1.029373;-0.732178;0.259033;-0.183105;0.538204;-0.291902;-0.666873;-0.424747
29340;10.191329;1.759494;0.957586;2.733783;0.031818;0.786044;-0.721191;0.253906;-0.194824;0.547764;-0.283805;-0.674297;-0.405873
29341;8.968100;1.961470;0.041266;2.668529;0.360819;0.644519;-0.719482;0.270996;-0.216797;0.558246;-0.273832;-0.680002;-0.388554
29342;8.360995;2.392924;-0.897791;2.616201;0.748616;0.614230;-0.722656;0.259033;-0.229980;0.570604;-0.262834;-0.683159;-0.372322
29343;8.251911;2.945738;-1.528261;2.477148;1.024725;0.692164;-0.710938;0.257324;-0.252686;0.583888;-0.251826;-0.684265;-0.356988
29344;8.678191;3.124282;-1.917390;2.190642;1.173668;0.801184;-0.695801;0.256104;-0.283447;0.597487;-0.242274;-0.683188;-0.342880
29345;9.560790;3.121115;-1.956167;1.790110;1.248882;0.919168;-0.697754;0.260010;-0.305908;0.610974;-0.234925;-0.679967;-0.330402
29346;10.513985;2.887714;-1.817185;1.395984;1.263213;1.076063;-0.674805;0.264893;-0.322510;0.623865;-0.230387;-0.675098;-0.319307
29347;11.113752;2.328690;-1.560111;1.073478;1.198271;1.266934;-0.661865;0.266602;-0.342529;0.636114;-0.228777;-0.669076;-0.308800
29348;11.055292;1.810640;-1.001716;0.702034;1.025853;1.457713;-0.645264;0.286133;-0.353760;0.647013;-0.230395;-0.662527;-0.298914
29349;10.462331;1.021230;-0.527822;0.407482;0.792132;1.542185;-0.638916;0.300781;-0.371826;0.656106;-0.234849;-0.656083;-0.289701
29350;9.760774;0.176657;-0.307549;0.247565;0.584173;1.513711;-0.618896;0.311768;-0.378174;0.663599;-0.240351;-0.650308;-0.281010
29351;9.021736;-0.435729;-0.087231;0.284374;0.514400;1.416898;-0.604980;0.328125;-0.383545;0.670481;-0.245206;-0.645063;-0.272437
29352;8.420685;-0.782034;0.042114;0.530295;0.514852;1.297551;-0.597900;0.336670;-0.392822;0.677472;-0.248123;-0.640472;-0.263175
29353;7.865333;-0.821724;0.105794;0.846823;0.526389;1.171956;-0.586182;0.338867;-0.400635;0.684740;-0.248472;-0.636726;-0.252930
29354;7.584328;-0.562687;0.064925;1.082749;0.494084;1.085674;-0.571045;0.341797;-0.414795;0.691970;-0.247017;-0.633779;-0.241835
29355;7.414628;-0.424787;0.019304;1.199666;0.441715;1.021880;-0.571777;0.337891;-0.422363;0.698961;-0.244597;-0.631336;-0.230306
29356;7.220185;-0.182351;-0.033708;1.198043;0.432657;0.976931;-0.561523;0.349121;-0.427734;0.705534;-0.241909;-0.629058;-0.219062
29357;7.155759;-0.057743;-0.205461;1.142018;0.440633;0.940475;-0.546387;0.349609;-0.439209;0.711823;-0.239505;-0.626531;-0.208337
29358;7.106171;0.168968;-0.494603;1.051088;0.500833;0.887135;-0.542480;0.346436;-0.458740;0.718088;-0.237186;-0.623463;-0.198461
29359;7.116364;0.350171;-0.467133;0.886638;0.558844;0.870490;-0.528076;0.347412;-0.472412;0.724221;-0.235527;-0.619743;-0.189602
29360;7.615645;0.436489;-0.563546;0.674599;0.506655;0.932195;-0.522217;0.352295;-0.475586;0.729702;-0.235523;-0.615779;-0.181329
29361;8.371827;0.073906;-0.791867;0.438665;0.413554;0.974749;-0.515869;0.352051;-0.475098;0.734173;-0.237336;-0.611915;-0.173843
29362;8.890201;-0.563390;-0.682513;0.207968;0.331750;0.956522;-0.509766;0.367188;-0.485596;0.737642;-0.240553;-0.608248;-0.167489
29363;9.148265;-0.754856;-0.135875;0.121236;0.205430;0.893239;-0.494873;0.372314;-0.486816;0.740181;-0.244175;-0.605282;-0.161689
29364;9.585782;-0.549097;0.394424;0.093006;0.055112;0.754668;-0.487305;0.369629;-0.488037;0.741704;-0.247459;-0.603431;-0.156558
29365;10.486249;-0.661450;0.679392;0.033322;-0.074182;0.532011;-0.481934;0.374512;-0.484375;0.742146;-0.250090;-0.602761;-0.152818
29366;11.525689;-0.668892;0.673621;0.005609;-0.102614;0.264864;-0.485596;0.372803;-0.489502;0.742027;-0.251613;-0.602777;-0.150820
29367;12.057398;-0.009395;0.948973;-0.137828;-0.097197;-0.013951;-0.482178;0.383545;-0.486328;0.741282;-0.252569;-0.603181;-0.151272
29368;12.313591;0.436959;1.236281;-0.485051;-0.152264;-0.276644;-0.482910;0.378906;-0.471191;0.739186;-0.254494;-0.603999;-0.154991
29369;13.229043;0.494338;1.293435;-1.023303;-0.235389;-0.509951;-0.489502;0.385498;-0.474609;0.735158;-0.258643;-0.605127;-0.162691
29370;14.656554;0.205438;1.299327;-1.717082;-0.279645;-0.681509;-0.493896;0.396484;-0.461426;0.729081;-0.266169;-0.605837;-0.174803
29371;15.688300;-0.826351;1.723211;-2.409187;-0.351720;-0.844716;-0.503418;0.406738;-0.437256;0.720606;-0.277101;-0.606126;-0.191186
29372;14.831448;-2.461181;2.043880;-2.754169;-0.433695;-1.086155;-0.510498;0.416992;-0.413818;0.710130;-0.288870;-0.606603;-0.210481
29373;11.448063;-2.488699;2.490393;-2.332133;-0.407571;-1.284201;-0.531006;0.411865;-0.392090;0.700059;-0.296932;-0.607799;-0.228755
29374;8.615892;-0.392246;2.543203;-1.416588;-0.289044;-1.351370;-0.543213;0.412109;-0.379883;0.692443;-0.298947;-0.610005;-0.242995
29375;7.624835;2.488049;1.511654;-0.771545;0.029046;-1.232103;-0.539062;0.405518;-0.377197;0.688154;-0.297156;-0.611245;-0.254013
29376;7.641430;3.659229;0.703950;-0.199453;0.363821;-0.929955;-0.557373;0.399658;-0.374023;0.687568;-0.292884;-0.610944;-0.261184
29377;8.398580;3.443281;0.699542;-0.036984;0.183587;-0.771748;-0.553711;0.396240;-0.373291;0.686744;-0.288866;-0.611623;-0.266187
29378;9.965148;3.250131;0.923558;-0.468835;-0.385108;-0.932974;-0.556641;0.388184;-0.364990;0.681588;-0.287749;-0.614936;-0.272931
29379;11.810180;3.181835;0.691641;-1.212645;-0.691475;-1.230175;-0.581299;0.383057;-0.351807;0.672294;-0.289977;-0.618911;-0.284399
29380;12.474672;2.546770;0.374370;-1.962368;-0.518481;-1.471450;-0.594238;0.394531;-0.343018;0.661275;-0.294644;-0.620525;-0.301413
29381;11.775352;1.302390;0.246903;-2.307598;-0.261148;-1.620303;-0.595459;0.381104;-0.322998;0.650046;-0.299665;-0.619895;-0.321514
29382;10.536195;-0.357746;0.211911;-2.161358;-0.130424;-1.771902;-0.611084;0.370117;-0.308594;0.639096;-0.302583;-0.618994;-0.341827
29383;9.353199;-1.483662;0.145412;-1.539767;-0.102220;-1.903042;-0.621826;0.362549;-0.300293;0.629174;-0.301282;-0.619760;-0.359539
29384;8.382203;-1.758727;0.070727;-0.741473;-0.107491;-1.963465;-0.632568;0.340332;-0.286865;0.620826;-0.295400;-0.622866;-0.373299
29385;7.756559;-1.165639;0.093604;-0.062195;-0.160018;-1.950561;-0.649170;0.323486;-0.286621;0.613729;-0.286156;-0.628157;-0.383236
29386;7.388123;-0.313584;0.107946;0.334176;-0.264319;-1.870093;-0.659912;0.303955;-0.291748;0.607133;-0.275570;-0.634892;-0.390336
29387;7.254630;0.649120;0.248984;0.303098;-0.319059;-1.757026;-0.674805;0.279541;-0.274902;0.600411;-0.265847;-0.641387;-0.396804
29388;7.337780;1.166443;0.207883;-0.057877;-0.338762;-1.601823;-0.680664;0.255371;-0.277588;0.593148;-0.258787;-0.646325;-0.404313
29389;7.291046;1.429692;0.202017;-0.612663;-0.333817;-1.454182;-0.685059;0.244629;-0.272705;0.585122;-0.255171;-0.648938;-0.414003
29390;7.439942;1.179624;0.228351;-1.181030;-0.340172;-1.331425;-0.685059;0.238037;-0.258057;0.576165;-0.254969;-0.649221;-0.426071
29391;7.682272;0.575721;0.325363;-1.625709;-0.336558;-1.211221;-0.700928;0.233398;-0.246338;0.566554;-0.257496;-0.647477;-0.439871
29392;7.984997;-0.084534;0.603658;-1.818225;-0.319493;-1.049331;-0.709473;0.221436;-0.246582;0.557035;-0.261672;-0.644405;-0.453851
29393;8.418992;-0.585994;0.860264;-1.760100;-0.329469;-0.870336;-0.703125;0.227783;-0.228271;0.548124;-0.266461;-0.641033;-0.466514
29394;8.828785;-0.799327;1.008971;-1.461827;-0.291632;-0.737903;-0.718018;0.224609;-0.225586;0.540457;-0.270431;-0.638183;-0.476965
29395;9.030166;-0.604811;1.290575;-1.054948;-0.251206;-0.630717;-0.714355;0.216553;-0.218506;0.534272;-0.272926;-0.636436;-0.484782
29396;9.156568;-0.134692;1.669809;-0.638202;-0.272317;-0.532065;-0.717529;0.206299;-0.215332;0.529283;-0.274144;-0.636196;-0.489856
29397;9.796530;0.309052;1.745632;-0.282486;-0.316118;-0.394732;-0.722656;0.211426;-0.206787;0.525420;-0.274673;-0.637273;-0.492313
29398;10.793945;1.048558;1.406967;-0.042396;-0.333495;-0.193780;-0.730469;0.208984;-0.206787;0.522824;-0.275319;-0.638922;-0.492579
29399;11.738510;1.592311;1.139025;-0.037708;-0.310375;0.039596;-0.722900;0.203857;-0.198730;0.521320;-0.277084;-0.639950;-0.491847
29400;12.208563;1.595434;1.264327;-0.167073;-0.268044;0.205382;-0.721924;0.208008;-0.194580;0.520417;-0.280113;-0.639883;-0.491175
29401;12.188851;1.083430;1.509383;-0.163080;-0.278169;0.334910;-0.722900;0.217041;-0.200684;0.519995;-0.283859;-0.639560;-0.489890
29402;12.179267;0.609018;1.786298;-0.137540;-0.320190;0.442349;-0.716553;0.225098;-0.193115;0.519854;-0.288229;-0.639249;-0.487889
29403;12.801986;-0.116053;1.422858;-0.034944;-0.402709;0.501321;-0.720459;0.221924;-0.179932;0.519743;-0.292813;-0.639545;-0.484881
29404;14.027258;0.069363;-0.360467;0.438852;-0.343362;0.559732;-0.723389;0.236084;-0.174316;0.521311;-0.295395;-0.641349;-0.479216
29405;13.814868;1.040920;-1.365463;1.348578;-0.165458;0.729489;-0.716797;0.233398;-0.177246;0.526687;-0.294224;-0.645509;-0.468349
29406;12.697838;1.230866;-1.386444;2.481411;-0.212353;0.977425;-0.718506;0.232178;-0.200684;0.535390;-0.289474;-0.653489;-0.450016
29407;11.139228;1.337480;-0.789921;3.405358;-0.189781;1.110551;-0.707764;0.234131;-0.209717;0.546599;-0.280992;-0.664070;-0.425776
29408;10.013032;1.896263;-0.256033;3.876271;0.070543;1.124639;-0.714844;0.241943;-0.221680;0.559846;-0.269238;-0.674419;-0.399051
29409;9.232163;2.440296;-0.396602;3.938715;0.471303;1.085122;-0.705566;0.234375;-0.249512;0.574695;-0.255364;-0.682401;-0.372618
29410;8.839330;3.165383;-0.630844;3.744977;0.837985;1.007716;-0.694092;0.225342;-0.265381;0.590343;-0.240508;-0.687416;-0.348008
29411;8.729969;4.256758;-0.805122;3.416062;1.107788;0.996406;-0.675537;0.226562;-0.292725;0.606214;-0.226170;-0.689481;-0.325527
29412;9.037105;5.031383;-1.106164;2.949429;1.201609;1.093085;-0.667725;0.217041;-0.325684;0.621497;-0.214316;-0.688985;-0.305139
29413;9.669260;5.085352;-1.526281;2.327530;1.232116;1.301357;-0.654785;0.218750;-0.340820;0.635959;-0.206586;-0.685904;-0.287076
29414;10.255280;4.511638;-1.768113;1.652394;1.305954;1.586084;-0.644043;0.222168;-0.362793;0.649988;-0.203802;-0.679963;-0.271351
29415;10.411354;3.557436;-1.401251;0.951141;1.258908;1.881609;-0.623047;0.233887;-0.376221;0.662927;-0.206489;-0.671887;-0.257797
29416;10.343338;2.125767;-0.754414;0.329326;1.003018;2.067268;-0.607422;0.261963;-0.393555;0.673492;-0.214135;-0.663294;-0.246161
29417;10.207673;0.544612;-0.424928;-0.135724;0.715739;2.092568;-0.592773;0.275146;-0.395996;0.681456;-0.225071;-0.655055;-0.236356
29418;10.014262;-0.772006;-0.277453;-0.326798;0.507029;1.970926;-0.589600;0.309814;-0.403076;0.687451;-0.236752;-0.647657;-0.227816
29419;9.663482;-1.541752;-0.162631;-0.229953;0.420838;1.849857;-0.572510;0.320557;-0.398193;0.692748;-0.247343;-0.640988;-0.219215
29420;9.249745;-1.815431;0.076867;0.179043;0.399151;1.723823;-0.555420;0.333008;-0.406006;0.698372;-0.254869;-0.635306;-0.209056
29421;8.995473;-1.609055;0.144833;0.757187;0.376799;1.610158;-0.547119;0.348389;-0.417236;0.704756;-0.258403;-0.630853;-0.196396
29422;8.581020;-1.316942;0.239998;1.199465;0.357290;1.459158;-0.530273;0.359863;-0.424072;0.711569;-0.258519;-0.627406;-0.182208
29423;8.147679;-0.784945;0.133777;1.405432;0.316463;1.274159;-0.532227;0.352051;-0.433350;0.718147;-0.256453;-0.624743;-0.167908
29424;7.823277;-0.286623;-0.015908;1.397787;0.252379;1.108198;-0.525879;0.353516;-0.449951;0.723959;-0.253574;-0.622675;-0.154465
29425;7.548472;-0.114476;-0.083335;1.231053;0.237964;1.006535;-0.506836;0.348145;-0.460449;0.729072;-0.251136;-0.620561;-0.142437
29426;7.381690;-0.033719;-0.120649;0.993020;0.281016;0.945469;-0.497803;0.358887;-0.466553;0.733731;-0.249730;-0.617925;-0.132072
29427;7.375145;0.052598;-0.137559;0.753213;0.336709;0.919185;-0.503174;0.351318;-0.474609;0.738053;-0.249588;-0.614656;-0.123214
29428;7.712713;0.159888;-0.130643;0.451932;0.422065;0.888560;-0.485840;0.354492;-0.476318;0.742072;-0.250999;-0.610585;-0.116255
29429;7.918673;-0.043488;-0.140487;0.109627;0.462599;0.822768;-0.472168;0.368408;-0.484619;0.745466;-0.254144;-0.606015;-0.111522
29430;7.971036;-0.469011;-0.163448;-0.212700;0.391841;0.714041;-0.468262;0.370605;-0.477539;0.747683;-0.258809;-0.601765;-0.108938
29431;8.039084;-0.990822;-0.071749;-0.408257;0.241792;0.530711;-0.471680;0.377441;-0.481201;0.748510;-0.263891;-0.598662;-0.108156
29432;8.770901;-1.498430;-0.140809;-0.414484;0.085389;0.339664;-0.465576;0.387451;-0.480713;0.748347;-0.268179;-0.596942;-0.108249
29433;9.910476;-1.960863;-0.093107;-0.273552;0.001407;0.144845;-0.469482;0.389404;-0.483398;0.747899;-0.270701;-0.596288;-0.108666
29434;10.820430;-1.399151;0.284655;-0.263625;-0.058994;-0.054383;-0.457031;0.390625;-0.485352;0.746989;-0.272210;-0.596473;-0.110133
29435;11.140819;-1.003403;0.792157;-0.530677;-0.158527;-0.309167;-0.461182;0.389160;-0.476562;0.744751;-0.274199;-0.597580;-0.114274
29436;11.645534;-0.718027;1.128061;-0.990526;-0.307460;-0.537563;-0.469971;0.394287;-0.470215;0.740448;-0.278028;-0.599672;-0.121782
29437;12.983916;-0.344069;1.221270;-1.529004;-0.335158;-0.688170;-0.480469;0.398193;-0.457764;0.734493;-0.284413;-0.601651;-0.132833
29438;14.932217;-0.703005;1.483365;-2.194610;-0.269045;-0.793081;-0.497070;0.406250;-0.437744;0.726956;-0.294180;-0.602572;-0.147985
29439;15.836604;-2.110293;1.980614;-2.940872;-0.275059;-0.931424;-0.495605;0.429688;-0.419434;0.716991;-0.307624;-0.602650;-0.167645
29440;14.390084;-3.478846;2.363730;-3.188365;-0.339247;-1.179349;-0.508545;0.432861;-0.386475;0.705212;-0.321196;-0.602919;-0.189733
29441;11.553236;-3.606759;2.402102;-2.540366;-0.334838;-1.424340;-0.519775;0.443359;-0.364014;0.694289;-0.329486;-0.604440;-0.209893
29442;9.396154;-1.637033;1.429148;-1.474630;-0.205436;-1.572890;-0.530029;0.437256;-0.353271;0.686363;-0.330513;-0.607189;-0.225807
29443;8.745932;0.325301;0.434384;-0.313182;0.126084;-1.480909;-0.548340;0.422363;-0.351807;0.683329;-0.324649;-0.609826;-0.236172
29444;8.409599;1.915037;0.142001;0.656122;0.462349;-1.251670;-0.552979;0.406250;-0.363525;0.684962;-0.313698;-0.611761;-0.241184
29445;8.796055;3.173867;0.300702;0.928404;0.249307;-1.230766;-0.548828;0.388672;-0.366211;0.686160;-0.301668;-0.615305;-0.244090
29446;9.698616;3.922980;0.593193;0.384997;-0.277241;-1.458200;-0.571045;0.370361;-0.374268;0.682715;-0.292620;-0.621215;-0.249731
29447;10.951578;4.239684;0.483184;-0.637357;-0.573924;-1.654072;-0.581543;0.361816;-0.357666;0.674702;-0.288892;-0.627056;-0.260997
29448;11.530079;3.566302;-0.005367;-1.792901;-0.420649;-1.718852;-0.594482;0.359619;-0.343750;0.664321;-0.290928;-0.629456;-0.278970
29449;10.978517;1.927694;-0.400887;-2.489322;-0.199116;-1.731942;-0.604004;0.343018;-0.333496;0.653022;-0.296089;-0.628694;-0.301061
29450;10.090173;0.055023;-0.331994;-2.636296;-0.117608;-1.775633;-0.622070;0.344971;-0.313232;0.641261;-0.301345;-0.626831;-0.324127
29451;9.327376;-1.373520;-0.239667;-2.257548;-0.108028;-1.826283;-0.632080;0.345947;-0.295166;0.629930;-0.304132;-0.625656;-0.345321
29452;8.584865;-2.123527;-0.156560;-1.495107;-0.111922;-1.860748;-0.638428;0.333984;-0.283691;0.620090;-0.302649;-0.626455;-0.362554
29453;8.054269;-1.815875;-0.035654;-0.689282;-0.134127;-1.850966;-0.653809;0.309326;-0.284180;0.611990;-0.297028;-0.629567;-0.375351
29454;7.903899;-0.972981;-0.005627;-0.079568;-0.173780;-1.779320;-0.661865;0.292969;-0.286133;0.605282;-0.288672;-0.634478;-0.384369
29455;7.982016;0.019597;-0.010343;0.104497;-0.195462;-1.626759;-0.663818;0.273682;-0.274902;0.599281;-0.280205;-0.639586;-0.391507
29456;8.069424;0.790418;-0.007521;-0.054557;-0.224373;-1.417637;-0.679932;0.251709;-0.271484;0.593316;-0.273730;-0.643722;-0.398334
29457;8.099907;1.187453;0.032588;-0.450011;-0.291431;-1.213708;-0.686279;0.244385;-0.275391;0.586688;-0.270464;-0.646346;-0.406059
29458;8.179513;1.213210;0.106511;-0.928073;-0.340970;-1.005932;-0.692871;0.234619;-0.257568;0.579364;-0.270777;-0.647034;-0.415167
29459;8.257442;1.010956;0.225964;-1.354257;-0.378111;-0.806311;-0.697998;0.231445;-0.257568;0.571450;-0.274337;-0.645875;-0.425475
29460;8.391989;0.562837;0.368540;-1.646149;-0.379036;-0.619795;-0.704834;0.224121;-0.240479;0.563437;-0.280207;-0.643129;-0.436357
29461;8.517559;0.130592;0.614767;-1.754816;-0.360726;-0.466163;-0.706543;0.231934;-0.235840;0.555684;-0.287280;-0.639404;-0.447044
29462;8.694751;-0.367763;0.900494;-1.681949;-0.351451;-0.369069;-0.708008;0.240723;-0.216309;0.548404;-0.294442;-0.635517;-0.456810
29463;8.987100;-0.738851;1.195173;-1.486604;-0.339676;-0.335148;-0.717773;0.239258;-0.217529;0.541663;-0.300848;-0.632093;-0.465349
29464;9.075465;-0.976041;1.395532;-1.196562;-0.323434;-0.333278;-0.711914;0.235352;-0.203613;0.535697;-0.305801;-0.629640;-0.472300
29465;9.085360;-1.100178;1.546305;-0.768273;-0.290495;-0.356172;-0.721191;0.239746;-0.200195;0.530852;-0.308579;-0.628728;-0.477155
29466;9.203545;-0.750896;1.550020;-0.224460;-0.246809;-0.340612;-0.727539;0.229492;-0.187500;0.527681;-0.308859;-0.629714;-0.479186
29467;9.720084;0.160105;1.179359;0.192737;-0.231402;-0.251855;-0.719238;0.227295;-0.188965;0.526000;-0.307712;-0.632066;-0.478675
29468;10.510176;1.165740;0.503610;0.454109;-0.189042;-0.065527;-0.722412;0.222900;-0.189453;0.525960;-0.306227;-0.634783;-0.476070
29469;11.163639;1.972732;0.379547;0.521416;-0.136722;0.153902;-0.714355;0.227295;-0.194092;0.527235;-0.305385;-0.636969;-0.472266
29470;11.607985;1.989062;0.605297;0.327434;-0.137453;0.340782;-0.718018;0.230713;-0.198975;0.528742;-0.306391;-0.637898;-0.468660
29471;12.567264;1.354619;0.783784;0.155996;-0.179550;0.524540;-0.716064;0.241455;-0.180420;0.530305;-0.309275;-0.637864;-0.465032
29472;14.153712;0.792042;-0.223358;0.429171;-0.204781;0.706411;-0.717041;0.240723;-0.182617;0.533087;-0.312064;-0.638488;-0.459094
29473;14.989057;0.948364;-1.268280;1.336892;-0.242910;0.917540;-0.720215;0.242432;-0.187744;0.538791;-0.312015;-0.642146;-0.447213
29474;14.390351;0.982241;-1.737143;2.447490;-0.351755;1.164328;-0.706299;0.257324;-0.197266;0.547542;-0.308571;-0.649574;-0.427826
29475;12.538458;1.229419;-1.292545;3.157035;-0.370746;1.233596;-0.704834;0.256348;-0.210205;0.557895;-0.302155;-0.658991;-0.403964
29476;10.445969;2.098960;-0.376586;3.333580;-0.079970;1.164902;-0.694336;0.257812;-0.223877;0.569605;-0.293277;-0.667282;-0.379833
29477;8.916261;2.523368;0.307229;3.036383;0.297856;1.075488;-0.702148;0.261230;-0.235596;0.581955;-0.283883;-0.672522;-0.358404
29478;8.630735;2.695900;0.275040;2.512828;0.570566;0.941186;-0.695557;0.248047;-0.252441;0.593816;-0.275292;-0.674777;-0.340989
29479;8.943318;2.851957;-0.143863;2.058558;0.852815;0.836910;-0.689453;0.254883;-0.273438;0.605658;-0.267376;-0.674299;-0.327122
29480;9.278548;2.895431;-0.532335;1.778636;1.056169;0.861994;-0.672363;0.257568;-0.297363;0.617862;-0.260391;-0.671705;-0.315047
29481;10.002124;2.388473;-0.944245;1.570834;1.063503;0.986171;-0.664551;0.265869;-0.314941;0.629782;-0.255071;-0.668023;-0.303412
29482;11.032332;1.652596;-1.304145;1.499216;1.014307;1.126832;-0.654297;0.265381;-0.337402;0.641424;-0.250973;-0.663900;-0.291245
29483;11.804101;1.005439;-1.275189;1.555831;0.965103;1.241063;-0.642090;0.275391;-0.350098;0.652983;-0.247216;-0.659728;-0.277950
29484;11.662424;0.600886;-0.865957;1.595579;0.876495;1.319455;-0.632080;0.270508;-0.367920;0.664082;-0.243818;-0.655735;-0.263741
29485;10.970016;0.478094;-0.427655;1.554040;0.711464;1.326020;-0.632080;0.283936;-0.384033;0.673986;-0.240934;-0.652342;-0.249288
29486;10.168813;0.481407;-0.166429;1.528813;0.552601;1.266540;-0.614990;0.283936;-0.393555;0.682636;-0.238145;-0.649699;-0.234918
29487;9.475300;0.424407;0.098767;1.499591;0.473754;1.194353;-0.604736;0.274170;-0.410400;0.690466;-0.235214;-0.647408;-0.220896
29488;9.007389;0.495331;0.128386;1.491459;0.475900;1.157700;-0.599609;0.289795;-0.425049;0.698047;-0.232026;-0.644997;-0.207059
29489;8.613164;0.604961;0.064752;1.375940;0.512671;1.144780;-0.578369;0.290039;-0.434814;0.705400;-0.229356;-0.642020;-0.193952
29490;8.284506;0.619638;0.049974;1.154784;0.498830;1.158059;-0.578369;0.297363;-0.450684;0.712123;-0.228029;-0.638595;-0.181882
29491;7.927563;0.475648;0.088791;0.847613;0.444208;1.147547;-0.570557;0.294922;-0.456787;0.717824;-0.228507;-0.634936;-0.171375
29492;7.627462;0.357859;0.113063;0.578738;0.389643;1.103198;-0.565674;0.300781;-0.458740;0.722559;-0.230387;-0.631228;-0.162425
29493;7.430289;0.078477;-0.001487;0.327649;0.358163;1.041560;-0.552002;0.306152;-0.464844;0.726478;-0.233479;-0.627426;-0.155095
29494;7.429368;-0.174138;-0.051645;0.128372;0.361642;0.973330;-0.539551;0.321289;-0.474854;0.729882;-0.237390;-0.623422;-0.149210
29495;7.446959;-0.422944;-0.124942;-0.035675;0.340258;0.912640;-0.532227;0.320801;-0.471924;0.732728;-0.242004;-0.619407;-0.144495
29496;7.649997;-0.515177;-0.309440;-0.113977;0.319019;0.885179;-0.527100;0.334961;-0.467041;0.735219;-0.246946;-0.615457;-0.140296
29497;7.850026;-0.628826;-0.377451;-0.143931;0.319212;0.842890;-0.517334;0.340576;-0.486084;0.737543;-0.251868;-0.611520;-0.136517
29498;8.179182;-0.801078;-0.582916;-0.136633;0.324913;0.802091;-0.509766;0.348389;-0.479004;0.739843;-0.256474;-0.607604;-0.132930
29499;8.364331;-0.957000;-0.454733;-0.084902;0.324081;0.709957;-0.507812;0.353516;-0.478760;0.742098;-0.260301;-0.603924;-0.129653
29500;8.593934;-1.129972;-0.339550;-0.044296;0.266699;0.590580;-0.500488;0.358887;-0.489746;0.743987;-0.263327;-0.600889;-0.126784
29501;9.000551;-1.225762;0.062376;-0.029379;0.125334;0.435142;-0.495361;0.369385;-0.486084;0.745031;-0.265608;-0.599071;-0.124478
29502;9.627134;-0.942215;0.388734;-0.117987;-0.046892;0.232244;-0.502441;0.372314;-0.481689;0.744791;-0.267636;-0.598667;-0.123508
29503;10.482080;-0.760944;0.787485;-0.471899;-0.177124;-0.027704;-0.501221;0.374023;-0.478027;0.742825;-0.270695;-0.599292;-0.125634
29504;11.047615;-0.923058;1.094088;-0.934775;-0.211253;-0.277476;-0.496094;0.384766;-0.472656;0.739355;-0.275385;-0.600181;-0.131530
29505;11.066227;-0.614379;1.327627;-1.362125;-0.150684;-0.444800;-0.502441;0.382568;-0.465332;0.734951;-0.281792;-0.600531;-0.140723
29506;11.687893;-0.362287;1.265310;-1.772289;-0.070343;-0.532944;-0.508545;0.398193;-0.453613;0.729747;-0.290079;-0.600018;-0.152652
29507;13.612127;-0.749542;0.995516;-2.149814;-0.024730;-0.571018;-0.505615;0.409424;-0.436279;0.723591;-0.300349;-0.598657;-0.166780
29508;15.835858;-1.594252;0.879696;-2.521274;-0.007617;-0.644433;-0.523926;0.423340;-0.414795;0.716194;-0.312358;-0.596609;-0.183183
29509;15.572355;-2.907885;1.477190;-2.714976;-0.050890;-0.844721;-0.517090;0.435059;-0.398926;0.707378;-0.324439;-0.594754;-0.201552
29510;12.950981;-3.725778;2.251797;-2.480826;-0.197967;-1.104770;-0.533691;0.445312;-0.382324;0.697669;-0.333920;-0.594521;-0.219774
29511;10.316824;-3.237411;1.547269;-1.747829;-0.283366;-1.381464;-0.539551;0.439941;-0.362305;0.688765;-0.337779;-0.596642;-0.235640
29512;7.971627;-1.043427;0.457285;-0.710957;-0.082999;-1.549464;-0.563721;0.429443;-0.357666;0.683254;-0.334373;-0.599955;-0.247816
